aX,aY,aZ,gX,gY,gZ
-1.014,-0.929,1.177,10.864,-8.789,36.011
-1.043,-0.978,1.334,15.991,5.127,46.082
-1.025,-0.932,1.427,22.095,30.334,55.969
-0.989,-0.915,1.454,31.616,57.556,62.500
-0.949,-0.889,1.465,37.720,78.674,65.735
-0.909,-0.929,1.600,47.607,88.867,67.322
-0.898,-1.087,1.798,62.500,94.299,68.359
-0.854,-1.189,2.056,76.965,98.633,73.547
-0.832,-1.432,2.267,93.933,105.896,82.214
-0.833,-1.586,2.435,102.722,119.629,95.337
-0.768,-1.474,2.539,97.534,143.433,116.943
-0.572,-1.285,2.443,76.172,183.533,142.761
-0.231,-1.084,2.083,49.072,236.084,163.330
0.001,-0.926,2.633,36.377,273.193,176.392
0.281,-0.622,2.830,69.763,323.181,189.880
0.342,-0.182,2.248,28.503,378.479,202.759
0.480,-0.099,2.213,6.104,401.489,202.087
0.326,-0.031,1.904,-11.841,421.570,197.266
-0.168,0.259,1.346,-46.082,454.773,192.383
-0.400,0.949,1.014,-63.965,483.582,183.411
-0.489,1.296,0.497,-72.998,508.179,163.086
-0.687,1.053,-0.335,-61.890,522.888,129.150
-0.669,0.905,-1.168,-32.776,512.146,95.093
-1.229,1.010,-1.426,16.174,459.534,69.824
-1.362,1.114,-1.485,76.782,390.442,32.104
-1.252,0.389,-1.512,97.534,326.416,-8.240
-1.476,-0.555,-1.379,48.523,251.831,-26.978
-1.705,-0.959,-1.556,43.457,182.190,-45.959
-0.974,-1.283,-1.046,39.917,124.207,-41.565
-1.428,-1.730,-0.653,19.470,69.397,-9.399
-1.726,-1.801,0.076,36.011,3.723,17.456
-2.013,-1.920,0.343,37.231,-42.419,43.945
-1.872,-2.034,0.321,27.954,-71.716,76.233
-1.405,-1.801,1.115,15.564,-84.595,113.159
-1.181,-1.424,0.700,-28.320,-59.326,144.531
-0.874,-0.880,0.645,-72.388,-36.560,156.250
-0.566,-0.626,0.661,-76.904,-24.902,151.672
-0.231,-0.350,0.519,-87.769,-14.160,142.212
0.145,-0.071,0.462,-79.346,-7.202,128.113
0.354,0.081,0.422,-57.434,-7.446,105.713
0.499,0.111,0.451,-30.579,-13.672,79.956
0.467,0.064,0.543,-0.793,-23.376,55.359
0.537,-0.110,0.688,24.048,-30.151,34.363
0.577,-0.291,0.812,41.321,-32.593,20.264
0.572,-0.416,0.847,41.321,-30.090,12.878
0.543,-0.478,0.865,33.447,-24.414,10.071
0.497,-0.585,0.906,29.175,-18.677,9.705
0.458,-0.673,0.990,26.245,-12.512,12.512
0.434,-0.711,0.994,19.775,-5.371,16.724
0.433,-0.721,0.953,9.766,0.366,19.897
0.452,-0.703,0.927,1.282,2.747,21.667
0.455,-0.697,0.910,-4.089,2.502,22.339
0.429,-0.657,0.864,-5.798,0.732,21.973
0.398,-0.616,0.799,-4.639,-2.563,20.752
0.370,-0.609,0.775,1.709,-7.141,18.799
0.344,-0.603,0.760,7.812,-10.803,17.334
0.330,-0.596,0.809,13.733,-15.015,15.564
0.348,-0.626,0.925,20.996,-19.958,13.611
0.387,-0.672,1.001,22.766,-23.071,12.390
0.404,-0.669,0.990,17.151,-25.208,10.681
0.409,-0.664,0.994,8.667,-27.222,8.179
0.425,-0.689,1.005,0.671,-28.076,7.263
0.455,-0.650,1.001,-7.019,-26.855,8.667
0.489,-0.625,0.995,-13.733,-24.658,11.292
0.492,-0.619,1.045,-18.616,-21.667,13.611
0.484,-0.545,0.916,-21.973,-19.409,15.442
0.501,-0.528,1.011,-14.343,-19.348,14.282
0.501,-0.490,0.966,-21.179,-18.494,13.184
0.510,-0.468,1.015,-24.109,-18.250,12.146
0.485,-0.482,1.037,-18.127,-18.188,9.338
0.485,-0.471,1.051,-14.221,-16.968,5.859
0.472,-0.483,1.044,-9.033,-16.113,1.953
0.462,-0.485,1.033,-2.808,-15.198,-2.319
0.454,-0.497,1.028,2.808,-13.672,-6.348
0.449,-0.511,1.012,7.141,-11.047,-9.583
0.445,-0.531,0.984,10.315,-7.874,-11.230
0.437,-0.537,0.949,13.062,-4.211,-11.536
0.422,-0.534,0.902,12.146,-1.221,-11.169
0.404,-0.563,0.876,7.935,1.587,-10.498
0.398,-0.590,0.853,3.296,5.188,-9.583
0.396,-0.574,0.831,-1.709,8.362,-9.033
0.387,-0.552,0.804,-6.592,10.010,-9.155
0.390,-0.536,0.782,-8.911,9.460,-10.010
0.401,-0.524,0.745,-8.850,7.385,-12.024
0.412,-0.530,0.714,-6.836,3.662,-15.015
0.412,-0.552,0.707,-2.075,-0.916,-18.616
0.411,-0.550,0.712,3.967,-4.150,-21.240
0.411,-0.551,0.715,7.324,-5.798,-22.156
0.398,-0.560,0.710,7.568,-5.737,-21.179
0.385,-0.569,0.710,7.629,-5.127,-19.775
0.374,-0.572,0.711,7.202,-3.845,-17.761
0.366,-0.590,0.728,5.127,-1.953,-15.320
0.358,-0.590,0.715,1.160,0.061,-12.939
0.364,-0.564,0.718,-2.747,1.587,-11.292
0.366,-0.564,0.754,-1.770,3.113,-11.536
0.370,-0.554,0.749,0.427,5.188,-12.207
0.359,-0.560,0.691,-0.183,5.432,-13.184
0.377,-0.532,0.653,-0.366,2.747,-14.404
0.382,-0.576,0.636,5.310,-0.183,-17.090
0.369,-0.596,0.635,10.010,-1.343,-18.982
0.336,-0.611,0.612,10.925,-1.953,-19.409
0.338,-0.579,0.550,6.287,-3.113,-18.066
0.322,-0.624,0.648,3.418,-5.188,-17.212
0.342,-0.663,0.751,7.812,-2.258,-15.808
0.359,-0.585,0.687,-1.404,2.686,-11.230
0.353,-0.548,0.641,-6.592,-0.183,-9.888
0.357,-0.553,0.721,1.038,-6.226,-11.963
0.366,-0.523,0.666,0.183,-9.399,-13.428
0.348,-0.569,0.661,-3.418,-14.282,-14.648
0.323,-0.566,0.684,-2.625,-16.785,-14.343
0.328,-0.545,0.686,-6.348,-15.015,-13.062
0.319,-0.539,0.643,-6.470,-12.329,-12.756
0.305,-0.532,0.645,-2.808,-10.071,-13.306
0.305,-0.496,0.650,0.366,-8.850,-14.160
0.306,-0.491,0.641,2.136,-8.728,-15.320
0.308,-0.509,0.631,2.991,-9.460,-16.235
0.308,-0.525,0.636,4.150,-10.803,-16.724
0.302,-0.538,0.621,4.150,-12.207,-17.395
0.299,-0.541,0.621,3.357,-13.733,-18.433
,,,,,
-0.942,-0.728,1.044,13.000,10.498,30.029
-0.994,-0.885,1.304,21.973,17.090,37.048
-0.998,-1.077,1.666,43.274,33.447,45.776
-1.062,-1.148,1.660,43.762,66.223,56.885
-1.159,-1.301,1.558,44.434,93.201,65.552
-1.206,-1.380,1.535,59.143,106.018,76.538
-1.209,-1.438,1.674,73.853,111.572,89.050
-1.198,-1.646,1.897,89.478,113.892,99.121
-1.186,-1.789,2.086,102.173,116.333,108.887
-1.253,-2.156,2.167,108.154,120.911,122.498
-1.277,-2.292,2.208,96.680,129.944,148.987
-1.231,-2.008,2.328,76.416,138.672,183.533
-1.141,-1.762,2.275,70.618,153.137,210.876
-0.947,-1.553,1.983,54.626,181.580,235.474
-0.579,-1.122,1.518,29.968,219.177,257.690
0.016,-0.436,1.301,-0.061,251.953,269.165
0.663,-0.070,0.909,-11.169,276.978,261.719
1.236,0.003,0.323,-29.419,288.574,251.526
1.653,-0.112,0.199,-73.364,279.724,249.329
1.295,-0.250,0.327,-87.769,247.742,259.033
0.674,-0.347,1.210,-87.830,223.877,278.381
0.438,0.130,1.194,-125.305,256.836,301.697
0.242,0.350,0.177,-214.294,327.454,313.049
0.328,1.487,-0.681,-266.174,378.845,311.462
0.857,2.107,-1.198,-223.145,406.982,249.756
1.172,2.647,-2.140,-112.610,419.922,173.279
0.875,2.467,-2.428,-4.456,363.159,101.318
0.558,1.352,-2.655,-33.142,253.784,42.114
0.078,0.347,-1.928,16.785,107.361,-3.601
-0.067,0.696,0.039,-35.583,-11.353,-9.705
-0.549,-0.066,0.926,-75.989,-45.654,-45.715
-1.050,-1.199,-0.006,-126.221,0.793,-87.952
-1.769,-1.091,-0.188,-80.017,9.216,-87.769
-2.610,-1.393,0.721,-66.895,-24.536,-62.622
-3.066,-1.888,1.490,-33.081,-49.805,-29.541
-3.095,-2.465,2.028,-6.958,-55.847,11.658
-2.799,-2.495,2.160,-1.587,-43.884,52.368
-2.035,-2.098,2.008,-34.424,-28.687,83.008
-1.734,-1.671,1.889,-63.904,-5.432,94.666
-1.342,-1.113,1.264,-99.731,29.724,94.360
-0.752,-0.267,0.367,-100.159,48.096,91.553
-0.059,0.345,-0.127,-72.754,35.461,79.651
0.584,0.532,0.032,-41.992,8.362,55.542
0.786,0.067,0.602,14.832,-10.620,24.048
0.738,-0.221,0.744,53.284,-0.061,10.193
0.609,0.038,0.104,43.518,18.311,11.230
0.573,-0.089,0.464,50.903,0.610,3.540
0.648,-0.245,0.792,42.114,-17.090,-0.366
0.624,-0.371,0.711,33.691,-20.386,-2.625
0.541,-0.432,0.939,19.653,-27.649,-0.916
0.445,-0.510,1.016,11.353,-29.236,1.343
0.407,-0.568,1.054,1.038,-26.062,3.235
0.355,-0.614,1.179,-1.709,-22.888,3.723
0.329,-0.587,1.159,-2.258,-16.541,2.197
0.322,-0.539,1.143,1.099,-10.315,0.916
0.331,-0.543,1.085,5.676,-5.371,-0.366
0.338,-0.521,1.009,8.423,-2.563,-1.099
0.335,-0.531,0.950,8.850,-2.441,-2.319
0.317,-0.528,0.924,11.719,-4.272,-3.235
0.313,-0.519,0.918,14.771,-6.287,-3.845
0.295,-0.512,0.951,19.653,-9.094,-4.089
0.271,-0.523,0.979,27.588,-11.169,-3.296
0.251,-0.525,0.962,31.616,-9.705,-1.221
0.248,-0.584,0.982,35.828,-6.470,1.465
0.251,-0.622,1.035,39.429,-0.977,4.822
0.261,-0.616,0.956,35.339,5.188,7.751
0.322,-0.588,1.006,30.762,7.629,9.644
0.386,-0.554,1.025,27.466,6.775,10.376
0.437,-0.530,1.015,18.982,4.272,10.376
0.470,-0.515,1.045,11.780,0.366,9.521
0.495,-0.514,1.068,4.578,-2.563,7.446
0.496,-0.507,1.061,-2.563,-4.639,5.493
0.494,-0.463,1.020,-13.000,-3.967,4.211
0.502,-0.432,0.999,-22.583,-1.953,3.479
0.515,-0.414,1.009,-25.696,0.793,3.418
0.520,-0.384,1.022,-23.987,5.066,4.517
0.517,-0.356,1.018,-19.409,9.827,5.371
0.524,-0.341,0.994,-12.268,12.939,5.249
0.510,-0.345,0.967,-3.479,14.771,4.028
0.496,-0.355,0.934,3.418,14.954,2.197
0.477,-0.354,0.908,7.446,14.282,-0.427
0.483,-0.388,0.888,9.277,12.390,-2.869
0.482,-0.433,0.859,7.996,9.216,-5.554
0.443,-0.469,0.842,7.141,5.554,-8.301
0.446,-0.472,0.860,4.211,2.258,-9.094
0.411,-0.469,0.775,-0.183,-0.061,-9.338
0.413,-0.475,0.800,4.150,-3.540,-9.277
0.414,-0.472,0.782,2.686,-4.639,-7.874
0.405,-0.455,0.754,1.099,-5.676,-6.165
0.389,-0.437,0.764,2.625,-6.714,-5.066
0.386,-0.440,0.778,3.357,-7.019,-4.517
0.391,-0.446,0.788,4.272,-6.287,-4.150
0.387,-0.417,0.776,6.348,-5.493,-4.883
0.389,-0.410,0.771,10.681,-5.920,-5.737
0.383,-0.438,0.763,16.052,-6.409,-6.042
0.370,-0.450,0.754,20.813,-6.104,-6.287
0.369,-0.453,0.772,25.085,-5.127,-6.653
0.379,-0.458,0.776,27.161,-3.479,-6.714
0.389,-0.482,0.754,23.376,-1.831,-6.104
0.397,-0.479,0.742,17.761,-1.526,-5.554
0.410,-0.459,0.760,12.939,-1.465,-5.432
0.423,-0.454,0.771,8.545,-0.916,-5.188
0.428,-0.458,0.766,3.845,0.366,-4.700
0.426,-0.466,0.773,1.404,1.953,-4.333
0.427,-0.454,0.765,0.427,4.028,-4.150
0.421,-0.441,0.766,0.854,6.409,-4.517
0.420,-0.429,0.761,2.869,8.545,-5.554
0.409,-0.422,0.755,6.042,9.644,-6.897
0.423,-0.414,0.744,10.132,9.460,-8.789
0.431,-0.419,0.732,13.367,8.728,-10.925
0.424,-0.458,0.728,16.174,7.202,-13.245
0.408,-0.476,0.717,15.381,6.165,-14.709
0.413,-0.483,0.712,13.550,5.310,-15.198
0.407,-0.495,0.703,9.094,4.456,-14.771
0.386,-0.532,0.708,2.075,3.845,-14.465
0.363,-0.537,0.716,-2.197,2.869,-13.367
0.365,-0.506,0.694,-10.132,3.540,-11.047
0.371,-0.481,0.697,-13.611,4.578,-9.705
0.373,-0.448,0.682,-11.963,5.188,-9.338
,,,,,
-0.921,-0.839,0.892,36.377,85.388,31.250
-0.902,-0.767,0.961,14.221,100.342,39.185
-0.941,-0.875,1.110,22.888,106.384,40.710
-1.039,-1.126,1.225,29.175,114.685,46.753
-0.927,-0.989,1.286,36.438,125.977,59.692
-1.045,-1.242,1.433,48.218,137.451,66.345
-1.010,-1.382,1.490,58.105,151.001,78.796
-0.928,-1.381,1.490,61.890,165.222,95.154
-0.913,-1.388,1.483,65.002,175.720,108.643
-0.874,-1.433,1.510,72.449,183.105,117.920
-0.744,-1.428,1.545,83.740,184.753,123.657
-0.693,-1.450,1.600,90.027,181.580,128.235
-0.464,-1.496,1.693,98.083,172.485,132.385
-0.187,-1.488,1.774,103.455,157.349,138.306
-0.033,-1.410,1.796,97.961,147.095,146.790
-0.014,-1.283,1.780,88.196,143.372,156.494
0.235,-1.443,1.827,83.313,139.954,161.560
0.513,-1.531,1.922,79.834,137.756,170.776
0.689,-1.528,1.821,65.857,144.714,183.777
0.833,-1.373,1.801,59.631,157.471,193.726
0.851,-1.037,1.608,52.368,170.044,206.421
0.767,-0.693,1.385,37.048,182.312,221.558
0.853,-0.293,1.241,33.081,194.519,231.384
0.570,-0.281,1.018,33.936,200.989,237.671
0.472,-0.094,0.702,15.198,208.130,247.375
0.252,-0.021,0.451,10.620,208.679,253.662
0.189,0.169,0.321,-0.977,210.876,260.132
0.224,0.489,0.099,-15.259,224.976,265.686
0.539,1.255,-0.770,-44.434,252.747,275.391
0.792,3.500,-1.311,-78.613,265.015,269.653
0.849,3.940,-0.838,-41.809,242.432,197.205
0.394,2.431,-1.012,46.753,208.740,84.167
-0.315,0.870,-1.402,48.279,164.612,0.366
-0.674,0.128,-1.472,-32.654,115.723,-32.959
-0.783,0.591,-1.201,-154.236,52.734,-39.551
-1.300,0.941,-0.280,-165.710,-19.531,-72.144
-1.635,-0.489,0.232,-97.778,-59.021,-134.399
-2.027,-1.538,0.330,-28.625,-59.082,-161.072
-2.519,-2.057,0.644,13.184,-58.411,-136.963
-2.711,-2.492,1.343,27.649,-55.969,-89.355
-2.622,-2.964,1.336,35.828,-32.227,-39.001
-2.082,-2.552,1.472,-26.978,-9.521,12.085
-1.844,-2.204,1.374,-109.192,10.986,39.612
-1.570,-1.585,0.774,-144.287,26.978,48.706
-1.224,-0.877,0.818,-122.803,17.090,52.002
-0.754,-0.828,0.856,-83.618,7.874,42.053
-0.290,-0.591,0.414,-59.998,15.747,42.236
-0.014,-0.242,0.459,-19.409,14.954,39.734
0.039,-0.338,0.605,26.062,13.245,30.029
0.226,-0.330,0.578,35.156,17.090,28.687
0.484,-0.357,0.582,21.606,16.418,28.564
0.585,-0.384,0.629,6.470,10.925,25.024
0.611,-0.325,0.670,-11.230,4.822,20.874
0.636,-0.341,0.686,-30.823,-0.549,17.273
0.290,-0.391,0.716,-34.119,-7.324,12.939
0.676,-0.438,0.866,-29.053,-15.930,9.460
0.478,-0.564,0.925,-14.587,-23.254,5.493
0.467,-0.675,0.840,-12.268,-18.677,2.686
0.375,-0.726,0.899,-9.460,-18.982,0.732
0.319,-0.734,0.951,-9.949,-16.418,0.366
0.301,-0.784,0.949,-9.277,-10.315,1.404
0.277,-0.831,0.978,-4.639,-5.005,3.723
0.266,-0.849,0.983,-0.793,0.916,6.836
0.281,-0.835,0.950,-1.160,6.226,9.766
0.277,-0.799,0.932,-2.258,8.240,11.475
0.298,-0.746,0.885,-1.099,8.484,12.878
0.273,-0.739,0.870,4.944,6.592,13.916
0.355,-0.711,0.707,8.301,4.028,14.404
0.341,-0.710,0.833,8.057,-0.488,14.343
0.272,-0.742,0.716,13.245,3.540,12.878
0.315,-0.776,0.708,-0.366,6.531,14.099
0.330,-0.764,0.818,-6.531,4.578,15.564
0.351,-0.688,0.859,-16.724,7.629,17.517
0.390,-0.680,0.985,-21.973,11.353,19.287
0.442,-0.664,1.167,-16.052,21.240,21.301
0.422,-0.655,0.798,-24.231,38.086,23.560
0.451,-0.635,0.918,-20.264,39.185,25.452
0.434,-0.603,0.945,-7.019,37.659,25.085
0.416,-0.563,0.788,-12.939,40.466,25.391
0.445,-0.474,0.748,-5.493,39.246,24.414
0.497,-0.433,0.693,1.465,36.987,22.095
0.559,-0.571,0.674,9.338,34.119,17.639
0.591,-0.670,0.709,18.799,32.837,16.052
0.608,-0.548,0.694,21.912,31.799,16.479
0.594,-0.559,0.698,22.156,25.146,13.062
0.630,-0.525,0.720,20.569,16.724,9.399
0.562,-0.622,0.741,18.860,8.667,5.554
0.518,-0.582,0.703,17.151,2.563,4.395
0.528,-0.535,0.692,12.817,0.244,5.249
0.523,-0.555,0.694,15.991,-3.845,3.479
0.468,-0.573,0.652,14.954,-6.958,1.709
0.454,-0.572,0.603,9.583,-7.690,1.160
0.470,-0.563,0.630,2.686,-4.944,1.892
0.491,-0.597,0.683,1.038,-2.747,2.075
0.518,-0.587,0.688,-0.061,-1.099,3.052
0.513,-0.568,0.695,-2.258,0.671,4.028
0.516,-0.573,0.706,-2.197,0.122,3.662
0.506,-0.567,0.685,-6.104,-2.075,2.869
0.497,-0.543,0.657,-7.141,-4.761,1.953
0.486,-0.502,0.659,-8.484,-5.859,0.916
0.509,-0.490,0.657,-9.338,-5.188,-0.977
0.547,-0.549,0.671,-7.690,-4.089,-2.686
0.571,-0.575,0.676,-5.981,-3.113,-2.747
0.579,-0.548,0.655,-5.676,-1.770,-2.136
0.571,-0.537,0.643,-3.784,-2.075,-2.747
0.551,-0.529,0.641,-0.732,-3.357,-3.784
0.527,-0.494,0.616,1.831,-4.517,-4.639
0.510,-0.480,0.594,4.211,-6.165,-6.287
0.498,-0.506,0.627,11.353,-8.911,-9.033
0.502,-0.524,0.665,19.165,-11.047,-11.902
0.501,-0.526,0.658,23.682,-12.939,-14.221
0.473,-0.566,0.651,24.231,-14.893,-15.564
0.462,-0.621,0.657,21.667,-14.771,-15.381
0.443,-0.627,0.662,16.113,-13.855,-13.550
0.459,-0.582,0.682,10.620,-12.634,-11.047
0.416,-0.603,0.632,5.371,-11.047,-9.094
0.446,-0.576,0.628,0.977,-10.193,-7.935
0.430,-0.565,0.651,-0.793,-10.925,-6.592
0.435,-0.514,0.641,-0.061,-11.169,-6.897
,,,,,
-0.933,-0.825,0.991,36.133,60.242,25.574
-0.964,-0.833,0.928,24.902,79.590,33.936
-1.004,-1.100,1.057,28.748,88.989,40.161
-0.983,-0.949,1.167,24.597,103.760,49.805
-0.998,-1.075,1.305,31.372,118.286,54.626
-1.042,-1.157,1.326,45.532,132.385,63.354
-1.018,-1.193,1.259,58.777,148.132,72.083
-1.002,-1.237,1.231,75.928,157.104,81.604
-0.997,-1.345,1.244,90.637,163.208,91.675
-0.958,-1.452,1.257,94.543,170.959,104.248
-0.845,-1.523,1.275,93.506,175.903,117.554
-0.743,-1.553,1.341,91.919,176.636,128.967
-0.664,-1.587,1.385,87.769,175.049,137.878
-0.510,-1.516,1.532,81.421,170.898,147.339
-0.250,-1.386,1.381,66.101,172.363,156.311
-0.028,-1.398,1.415,60.730,171.448,163.086
0.189,-1.349,1.470,65.918,176.147,169.189
0.285,-1.363,1.458,68.787,189.331,174.072
0.444,-1.549,1.274,57.251,195.740,180.420
0.722,-1.881,1.504,60.547,183.411,186.157
0.968,-1.855,1.565,70.313,162.476,197.754
0.917,-1.546,1.536,71.716,143.616,217.285
0.913,-1.275,1.528,71.228,136.047,239.563
0.976,-0.991,1.487,53.467,141.846,261.841
1.029,-0.783,1.410,25.757,150.635,287.048
0.985,-0.534,1.370,-1.953,170.715,309.387
0.896,-0.082,1.009,-35.767,198.730,326.965
0.573,0.404,0.775,-69.336,211.975,335.022
0.364,0.688,0.494,-85.815,220.581,328.186
0.504,1.050,-0.062,-86.426,223.938,300.598
0.474,1.003,-0.308,-74.646,209.717,251.892
0.386,1.404,-0.427,-97.290,177.795,208.862
0.556,1.845,-0.705,-96.069,163.269,153.259
0.879,2.395,-1.277,-94.421,163.574,93.750
0.903,2.336,-0.879,-112.732,122.437,19.104
-0.178,0.866,0.434,-75.745,75.439,-85.754
-0.809,0.515,0.243,-4.761,82.031,-162.598
-1.390,0.050,-0.537,-81.299,118.591,-171.448
-2.282,-0.604,-0.732,-114.136,103.821,-183.472
-2.491,-1.187,-0.510,-105.896,57.495,-188.965
-2.721,-1.778,-0.470,-93.445,10.620,-180.603
-3.248,-1.978,0.257,-40.344,-67.932,-155.884
-3.448,-2.130,2.215,34.424,-113.342,-122.498
-2.786,-3.052,1.516,102.112,-51.147,-88.623
-2.426,-3.088,0.765,64.636,-2.319,-23.987
-1.933,-2.420,1.512,13.672,-19.592,39.978
-1.661,-1.833,1.261,-63.477,-12.573,87.402
-1.089,-1.128,0.928,-151.367,16.663,121.826
-0.743,-0.077,0.439,-181.274,35.583,141.418
-0.357,0.235,0.093,-127.686,34.058,131.836
0.086,0.540,0.093,-76.660,20.630,115.906
0.506,0.522,0.298,-45.715,7.874,102.539
0.555,0.760,0.262,-28.137,0.000,86.548
0.527,0.538,0.688,-3.540,-11.780,60.059
0.634,0.289,0.760,20.325,-9.644,37.781
0.693,0.236,0.523,2.014,-4.089,26.489
0.643,0.013,0.770,17.517,-15.381,8.667
0.631,-0.219,0.713,24.597,-23.132,-7.568
0.594,-0.443,0.847,30.945,-28.748,-18.616
0.554,-0.600,0.944,33.142,-27.405,-22.766
0.525,-0.717,1.024,29.480,-21.301,-20.081
0.479,-0.766,1.069,24.597,-13.733,-14.587
0.423,-0.713,0.971,18.372,-5.615,-9.521
0.431,-0.723,0.950,12.268,0.183,-5.493
0.434,-0.764,0.913,10.620,6.470,-2.380
0.410,-0.739,0.808,4.761,17.700,2.441
0.432,-0.694,0.846,-1.221,27.893,8.057
0.503,-0.603,0.893,-1.343,33.936,10.132
0.503,-0.569,0.804,7.751,33.264,4.578
0.467,-0.634,0.761,20.386,24.414,-2.991
0.477,-0.631,0.755,24.292,12.695,-5.432
0.485,-0.650,0.756,27.527,0.183,-6.104
0.477,-0.647,0.750,33.264,-9.705,-7.263
0.464,-0.652,0.740,40.222,-17.578,-8.423
0.461,-0.727,0.823,45.654,-23.376,-7.324
0.497,-0.825,0.971,50.964,-22.217,-1.526
0.472,-0.771,0.896,52.124,-12.390,9.644
0.308,-0.754,0.791,50.232,-1.709,19.165
0.375,-0.801,0.820,36.804,7.751,20.386
0.381,-0.774,0.897,7.080,18.616,14.832
0.372,-0.789,0.823,-19.714,26.855,3.540
0.443,-0.787,0.815,-36.316,29.907,0.916
0.562,-0.704,0.799,-45.959,31.921,5.493
0.562,-0.709,0.768,-37.720,27.161,7.263
0.598,-0.593,0.720,-32.471,20.142,9.949
0.595,-0.606,0.688,-23.621,11.597,10.864
0.567,-0.644,0.686,-10.315,3.113,10.681
0.531,-0.642,0.698,0.122,-4.700,9.949
0.473,-0.615,0.665,0.793,-10.193,9.766
0.454,-0.653,0.711,0.854,-12.268,9.705
0.463,-0.655,0.758,5.371,-10.315,11.108
0.470,-0.626,0.722,6.958,-5.859,15.015
0.494,-0.626,0.725,6.104,-2.075,19.470
0.522,-0.638,0.732,2.625,-0.122,23.315
0.538,-0.630,0.719,-1.953,0.122,24.902
0.529,-0.590,0.709,-3.540,-2.625,23.376
0.488,-0.544,0.703,-2.991,-7.141,19.897
0.471,-0.511,0.728,-1.831,-10.742,16.296
0.483,-0.514,0.754,1.038,-13.489,12.634
0.475,-0.507,0.730,5.859,-14.893,9.033
0.463,-0.481,0.691,11.841,-15.198,4.883
0.465,-0.506,0.669,16.846,-15.198,1.221
0.464,-0.585,0.665,18.677,-14.160,-0.671
0.472,-0.643,0.668,16.418,-11.292,0.000
0.457,-0.669,0.683,12.512,-9.094,2.075
0.460,-0.679,0.688,4.211,-7.141,5.432
0.459,-0.668,0.715,-4.883,-5.737,9.033
0.436,-0.611,0.708,-11.719,-5.371,11.841
0.407,-0.559,0.695,-16.479,-6.836,13.123
0.413,-0.500,0.678,-19.775,-8.911,12.146
0.430,-0.482,0.685,-20.935,-10.254,10.803
0.441,-0.470,0.672,-20.325,-10.742,8.484
0.444,-0.469,0.669,-14.648,-11.047,5.188
0.456,-0.485,0.661,-8.301,-11.169,2.197
0.467,-0.517,0.656,-3.418,-11.230,0.061
0.467,-0.547,0.662,1.465,-11.353,-0.610
0.442,-0.561,0.650,3.967,-10.559,0.427
0.423,-0.585,0.654,2.380,-8.911,3.113
0.429,-0.588,0.685,-0.122,-6.348,6.592
,,,,,
-0.890,-0.744,1.085,44.678,76.294,32.104
-0.929,-0.871,1.169,53.101,104.187,39.185
-0.970,-1.119,1.181,55.359,132.812,47.546
-0.936,-1.353,1.172,55.603,154.175,59.692
-0.944,-1.589,1.246,60.730,166.199,72.021
-0.863,-1.657,1.414,61.523,171.814,87.524
-0.836,-1.544,1.412,51.880,173.035,105.103
-0.952,-1.442,1.386,59.814,174.255,115.540
-0.796,-1.289,1.444,79.956,176.636,123.352
-0.598,-1.335,1.512,93.384,178.040,130.127
-0.479,-1.415,1.617,107.788,183.411,132.996
-0.352,-1.549,1.517,105.896,196.289,138.000
-0.171,-1.821,1.565,98.755,204.956,149.353
0.063,-2.042,1.606,87.463,215.698,165.649
0.311,-2.182,1.660,78.186,222.900,184.021
0.494,-2.367,1.625,81.421,213.257,199.280
0.710,-2.233,1.573,78.186,189.575,218.506
0.801,-1.707,1.448,73.853,162.048,237.976
0.747,-1.282,1.198,62.744,151.306,235.657
1.005,-1.224,1.221,57.983,149.963,234.131
1.129,-1.008,1.037,40.527,148.193,241.394
1.251,-0.768,0.921,42.542,151.917,244.080
1.362,-0.514,0.917,50.659,161.987,247.620
1.399,-0.416,0.738,40.161,174.744,254.944
1.107,-0.228,0.596,29.541,171.936,261.719
0.756,-0.002,0.513,20.935,167.297,272.217
0.696,0.424,0.448,16.541,160.461,273.987
0.652,0.886,0.259,19.592,148.254,261.353
0.802,1.589,-0.071,4.822,148.987,246.826
0.804,2.304,-0.478,-26.794,180.908,225.098
1.060,2.984,-1.457,-86.731,217.468,187.683
1.073,3.997,-2.359,-46.448,235.535,125.488
0.885,3.193,-2.152,34.119,221.375,24.353
0.885,1.596,-2.340,11.780,142.334,-72.693
0.115,-0.212,-0.822,30.457,-38.940,-182.983
-0.820,0.272,2.068,45.166,-177.673,-230.225
-2.024,-0.424,1.318,-81.543,-81.360,-225.769
-3.219,-0.722,-0.350,-195.740,9.094,-210.999
-3.379,-1.188,-0.239,-157.349,-4.456,-206.116
-3.786,-2.252,0.196,-129.822,-69.092,-196.411
-4.000,-2.487,2.058,-33.264,-122.681,-163.879
-3.737,-2.707,2.541,39.185,-107.178,-113.159
-3.289,-3.752,1.093,-20.325,-30.090,-55.847
-2.514,-2.406,1.951,-48.523,-37.048,42.603
-1.663,-1.601,1.779,-84.290,-36.255,91.675
-1.476,-2.017,1.445,-109.070,0.427,81.848
-1.599,-1.369,1.180,-114.197,32.776,103.027
-1.147,-0.648,0.505,-116.577,61.890,138.550
-0.754,-0.268,0.259,-79.285,72.998,152.771
-0.273,0.266,-0.100,-29.907,74.036,154.541
0.264,0.505,-0.089,-23.987,69.763,145.996
0.451,0.250,-0.089,-1.587,49.316,122.498
0.439,0.331,-0.010,-4.211,33.203,108.215
0.547,0.546,-0.061,-16.235,12.939,91.187
0.965,-0.061,0.419,-21.423,-12.756,68.115
0.846,0.216,0.580,-30.945,-29.236,57.983
0.757,-0.106,0.514,-30.884,-33.203,40.161
0.734,-0.261,0.732,-23.682,-43.945,27.832
0.554,-0.203,0.828,-24.292,-47.913,20.142
0.482,-0.368,0.856,-23.499,-44.312,9.705
0.452,-0.355,0.930,-21.729,-39.246,4.150
0.403,-0.471,0.978,-4.456,-32.776,-1.282
0.393,-0.574,0.961,7.996,-25.574,-3.906
0.401,-0.604,0.922,14.282,-20.020,-3.967
0.405,-0.657,0.932,17.883,-17.029,-4.395
0.445,-0.666,1.052,25.024,-9.949,-6.042
0.443,-0.683,0.791,27.771,2.930,-7.935
0.489,-0.694,0.723,29.358,5.310,-8.667
0.524,-0.704,0.724,40.039,1.038,-10.742
0.547,-0.720,0.644,38.452,-1.831,-10.437
0.520,-0.702,0.636,38.635,-5.676,-8.850
0.514,-0.717,0.626,30.823,-8.362,-5.432
0.521,-0.727,0.781,17.944,-9.216,0.122
0.507,-0.692,0.872,10.559,-8.850,6.165
0.535,-0.617,0.852,6.409,-7.568,10.193
0.589,-0.606,0.876,8.606,-8.362,12.634
0.624,-0.610,0.920,14.771,-7.141,15.198
0.636,-0.626,0.977,26.550,-0.183,16.479
0.644,-0.662,0.902,35.034,11.047,13.428
0.474,-0.653,0.899,31.250,21.362,5.798
0.430,-0.578,0.655,8.301,30.457,-6.653
0.386,-1.063,0.776,12.512,26.428,-22.156
0.554,-0.735,0.668,-4.578,28.381,-13.855
0.644,-0.735,0.677,-15.442,23.560,-4.456
0.640,-0.678,0.683,-16.357,12.268,-3.418
0.582,-0.695,0.690,-19.165,3.723,-2.319
0.560,-0.755,0.745,-16.357,-2.258,-0.366
0.576,-0.729,0.737,-21.973,-5.249,4.150
0.569,-0.672,0.692,-24.231,-8.789,6.470
0.558,-0.645,0.685,-15.686,-12.695,6.653
0.556,-0.649,0.727,-11.780,-13.367,8.118
0.548,-0.621,0.753,-5.981,-13.123,8.911
0.537,-0.578,0.711,0.122,-13.062,8.728
0.487,-0.542,0.651,8.667,-14.221,6.958
0.456,-0.549,0.625,16.235,-16.357,4.272
0.443,-0.583,0.615,18.921,-17.456,2.686
0.437,-0.624,0.647,17.761,-17.700,2.686
0.420,-0.674,0.678,14.343,-18.127,4.089
0.421,-0.679,0.679,7.568,-16.907,7.202
0.428,-0.658,0.695,2.136,-15.137,10.681
0.435,-0.645,0.711,0.183,-14.526,12.634
0.434,-0.621,0.706,-0.122,-14.282,13.184
0.425,-0.619,0.696,0.671,-14.465,12.878
0.427,-0.615,0.685,0.427,-13.855,12.695
0.454,-0.613,0.677,-1.404,-12.756,12.695
0.482,-0.604,0.688,-2.747,-11.963,12.512
0.501,-0.594,0.692,-2.808,-11.658,12.146
0.501,-0.576,0.687,-3.967,-10.864,12.207
0.488,-0.578,0.704,-5.371,-9.827,12.207
0.456,-0.607,0.706,-5.920,-8.606,12.695
0.437,-0.626,0.709,-8.667,-6.042,14.099
0.445,-0.568,0.706,-10.864,-2.930,16.174
0.444,-0.524,0.695,-9.399,-0.244,15.930
0.471,-0.543,0.701,-3.113,0.305,12.146
0.500,-0.542,0.704,1.282,0.854,10.681
0.507,-0.542,0.679,1.465,0.977,10.681
0.503,-0.532,0.656,0.977,0.671,11.230
0.493,-0.535,0.654,0.183,-0.427,11.414
0.473,-0.543,0.651,0.488,-1.648,11.536
,,,,,
-0.869,-0.909,0.821,12.268,55.298,43.152
-0.901,-0.994,0.788,10.742,65.125,51.575
-0.903,-1.072,0.848,18.860,70.435,59.143
-0.913,-1.120,0.910,24.231,76.538,67.993
-0.897,-1.206,1.013,31.128,80.750,76.782
-1.000,-1.419,1.099,39.490,84.717,85.938
-0.958,-1.551,1.177,42.175,87.769,98.755
-1.031,-1.604,1.248,42.419,89.966,116.089
-0.978,-1.527,1.096,28.687,93.933,134.399
-0.937,-1.562,1.081,26.611,99.854,148.621
-0.816,-1.579,1.160,37.720,108.459,156.738
-0.612,-1.620,1.287,51.147,114.319,160.828
-0.323,-1.728,1.420,67.749,116.333,162.476
-0.144,-1.956,1.552,84.106,117.432,165.588
-0.014,-2.026,1.574,78.918,118.713,179.932
0.094,-2.023,1.637,58.105,117.615,201.111
0.169,-2.221,1.761,40.833,115.967,217.529
0.282,-2.095,1.928,26.855,113.403,234.131
0.230,-1.743,1.833,4.333,116.394,250.061
0.340,-1.479,1.738,-1.770,126.404,259.644
0.436,-1.192,1.606,-11.536,144.592,268.677
0.456,-0.893,1.529,-14.709,162.659,274.963
0.410,-0.590,1.484,-24.780,182.800,282.104
0.473,-0.266,1.344,-50.598,205.017,292.603
0.585,-0.032,1.131,-70.129,222.412,302.185
0.540,0.149,0.869,-75.439,233.948,304.504
0.335,0.039,0.460,-86.670,241.150,302.490
0.399,0.573,0.266,-117.676,235.168,303.955
0.381,0.960,0.122,-111.389,214.722,293.518
0.481,1.695,-0.058,-186.768,198.547,271.240
0.768,2.412,-0.766,-237.122,204.590,217.468
1.166,3.228,-1.332,-218.750,217.468,150.085
1.350,3.300,-1.129,-166.443,196.045,53.467
0.563,1.429,-0.856,-91.064,165.039,-67.200
-0.214,0.850,-0.583,-42.358,143.066,-132.812
-0.602,1.160,-1.051,-84.717,130.310,-157.898
-1.358,1.277,-0.754,-92.957,73.975,-198.486
-2.411,0.258,-0.442,-38.757,5.127,-260.742
-2.993,-1.123,-0.349,19.043,-40.527,-294.128
-3.473,-2.142,0.302,65.796,-106.384,-280.029
-4.000,-2.808,2.778,135.620,-141.663,-232.727
-4.000,-3.880,2.235,185.486,-49.988,-170.898
-3.368,-3.869,1.518,70.068,22.522,-75.989
-2.364,-3.798,1.837,-35.217,39.490,24.780
-1.916,-2.292,1.182,-114.502,41.748,111.511
-1.402,-1.187,1.020,-134.827,40.710,138.062
-1.222,-1.079,0.982,-143.555,38.208,118.835
-0.910,-0.281,0.185,-135.010,54.993,132.263
-0.212,0.528,-0.121,-102.417,56.885,146.057
0.186,0.792,0.083,-66.040,40.222,133.972
0.322,0.772,-0.125,-37.415,22.888,108.887
0.490,0.507,0.252,-9.277,0.427,78.247
0.559,0.533,0.460,1.526,-11.353,59.814
0.663,0.360,0.506,1.099,-12.146,45.959
0.730,0.124,0.672,1.770,-13.184,35.645
0.731,-0.052,0.806,2.747,-12.817,28.442
0.615,-0.197,0.798,-2.380,-9.705,20.691
0.521,-0.318,0.816,0.183,-10.559,11.902
0.457,-0.378,0.852,2.747,-14.404,5.249
0.405,-0.455,0.826,5.249,-17.212,-1.648
0.385,-0.577,0.791,8.301,-18.616,-7.202
0.413,-0.669,0.931,10.376,-20.142,-10.071
0.451,-0.684,0.915,14.526,-15.991,-11.047
0.454,-0.693,0.764,10.254,-11.169,-10.803
0.457,-0.686,0.808,10.071,-12.085,-9.094
0.428,-0.684,0.795,9.094,-9.888,-5.371
0.488,-0.667,0.816,2.747,-3.418,0.427
0.430,-0.666,0.773,4.517,2.686,4.822
0.395,-0.661,0.786,3.845,7.751,9.033
0.379,-0.653,0.816,5.188,9.460,11.963
0.390,-0.625,0.790,5.127,10.315,13.062
0.409,-0.595,0.771,7.568,9.521,12.085
0.454,-0.598,0.795,9.583,7.751,10.620
0.504,-0.607,0.844,12.573,5.188,10.254
0.530,-0.593,0.845,16.296,3.296,10.498
0.528,-0.567,0.799,20.874,0.366,11.169
0.526,-0.581,0.827,27.710,-3.113,12.573
0.481,-0.625,0.847,35.706,-3.540,16.418
0.507,-0.611,0.828,37.598,1.892,20.325
0.472,-0.648,0.816,38.574,8.423,17.822
0.334,-0.745,0.839,33.691,13.916,9.766
0.304,-0.796,0.846,15.686,19.958,0.244
0.404,-0.723,0.828,-7.202,25.330,-3.601
0.547,-0.662,0.816,-20.386,25.208,-3.601
0.625,-0.653,0.833,-23.254,21.118,-2.502
0.607,-0.687,0.847,-18.372,17.029,0.671
0.569,-0.660,0.784,-13.062,15.930,5.554
0.536,-0.616,0.730,-12.634,13.916,10.254
0.494,-0.600,0.673,-9.155,9.583,12.207
0.518,-0.557,0.704,-10.803,8.484,16.785
0.525,-0.611,0.758,-9.277,10.681,19.653
0.522,-0.638,0.788,-5.310,13.123,21.973
0.562,-0.558,0.788,-6.836,16.785,24.231
0.576,-0.519,0.785,-2.319,16.174,23.193
0.577,-0.485,0.750,1.831,11.902,20.447
0.554,-0.530,0.715,7.446,5.737,16.235
0.556,-0.484,0.706,16.541,-0.183,12.024
0.566,-0.479,0.691,20.386,-4.639,8.301
0.499,-0.468,0.631,27.466,-9.155,4.028
0.470,-0.446,0.591,31.616,-10.620,1.526
0.490,-0.514,0.619,34.180,-8.240,1.221
0.531,-0.572,0.640,36.743,-4.517,3.235
0.578,-0.643,0.655,34.851,-1.343,6.165
0.563,-0.661,0.673,29.968,-0.061,9.521
0.529,-0.619,0.655,18.616,-0.610,13.733
0.501,-0.585,0.655,5.188,-3.174,17.090
0.477,-0.543,0.640,-3.906,-6.226,18.677
0.455,-0.500,0.636,-9.216,-9.949,18.127
0.458,-0.474,0.649,-8.850,-13.367,15.381
0.440,-0.440,0.621,-6.714,-16.418,12.207
0.412,-0.412,0.604,-3.540,-18.433,8.789
0.416,-0.408,0.608,1.526,-17.822,5.737
0.432,-0.458,0.595,8.057,-16.052,3.418
0.458,-0.512,0.598,13.000,-13.000,3.296
0.480,-0.540,0.632,15.137,-11.047,3.723
0.486,-0.553,0.642,14.893,-11.536,3.418
0.484,-0.570,0.634,11.780,-13.245,2.991
0.469,-0.554,0.618,7.141,-16.113,2.686
0.445,-0.531,0.640,5.005,-20.630,1.587
,,,,,
-0.918,-0.940,0.812,12.329,25.574,28.809
-0.940,-1.078,0.902,16.174,31.677,38.696
-0.959,-1.151,1.139,19.104,41.382,52.002
-0.938,-1.171,1.015,17.700,60.181,66.040
-0.940,-1.179,0.915,6.348,71.594,79.346
-1.041,-1.262,0.937,16.052,76.721,88.257
-1.050,-1.277,0.958,11.536,85.999,100.586
-1.050,-1.324,1.027,6.226,94.604,112.366
-0.993,-1.288,1.130,9.399,102.112,124.084
-0.901,-1.230,1.150,8.911,112.061,134.033
-0.815,-1.231,1.210,14.893,120.300,140.564
-0.683,-1.291,1.304,20.325,128.113,145.447
-0.547,-1.451,1.376,24.109,133.972,151.123
-0.439,-1.625,1.503,33.630,134.888,156.738
-0.370,-1.849,1.706,47.607,131.775,162.598
-0.239,-1.947,1.829,52.673,128.601,175.964
-0.157,-1.844,1.833,43.152,127.991,195.007
-0.174,-1.954,1.889,43.701,127.991,206.787
-0.155,-2.084,1.983,54.077,128.662,215.942
-0.010,-1.944,1.912,48.096,138.000,231.934
0.176,-1.631,1.748,39.429,153.381,247.742
0.276,-1.275,1.564,43.091,164.673,255.981
0.531,-0.976,1.448,54.749,170.410,260.010
0.763,-0.740,1.251,60.791,170.349,263.916
0.943,-0.581,1.172,58.105,159.241,271.973
1.137,-0.515,1.305,33.936,141.785,290.161
1.153,-0.243,1.401,-62.927,139.832,318.909
1.106,-0.418,1.396,-172.119,138.672,338.074
0.431,-0.333,1.287,-264.648,148.437,341.492
-0.032,-0.064,0.877,-276.978,187.317,325.378
-0.093,1.082,0.623,-245.789,250.305,296.875
0.178,3.426,0.418,-236.450,326.904,256.897
0.434,4.000,-0.558,-132.446,378.174,160.339
0.664,3.538,-2.229,48.279,370.239,35.217
0.600,1.573,-1.794,172.668,268.311,-64.880
0.071,0.446,-1.826,194.641,146.179,-103.088
-0.658,0.786,0.258,119.080,49.011,-115.356
-1.378,0.293,0.387,46.448,50.293,-157.532
-1.707,0.054,-0.523,-91.370,109.436,-193.115
-2.505,0.018,-0.791,-143.250,102.783,-226.868
-3.042,-0.413,-0.836,-112.366,52.673,-248.657
-3.118,-1.288,-0.994,-85.205,-4.211,-251.526
-2.952,-2.122,0.895,-30.151,-69.214,-228.821
-2.354,-2.419,1.563,128.662,-57.556,-179.077
-2.403,-2.628,0.604,78.613,-14.099,-98.938
-2.157,-2.850,1.116,20.935,-37.842,-27.405
-1.612,-2.733,1.757,-43.213,-73.120,28.931
-1.435,-2.273,0.680,-167.908,-50.171,64.758
-1.080,-0.489,0.894,-201.355,-37.964,92.957
-1.046,-0.911,1.002,-242.554,-23.865,83.740
-0.519,-0.676,0.377,-241.699,16.113,84.473
-0.004,-0.144,0.417,-177.917,23.804,93.445
0.165,-0.002,0.507,-94.910,16.235,83.008
0.419,0.063,0.485,-47.546,9.338,69.824
0.517,-0.042,0.589,-3.723,0.549,53.528
0.195,-0.228,0.479,9.155,-8.606,41.138
0.478,-0.239,0.994,-8.423,-21.790,35.400
0.438,-0.360,0.868,-14.709,-16.907,28.381
0.309,-0.433,0.658,-34.424,-2.747,24.414
0.244,-0.584,0.853,-34.363,-5.371,24.414
0.245,-0.610,0.911,-39.185,-3.418,23.499
0.306,-0.725,0.695,-44.800,3.113,23.682
0.488,-0.264,0.778,-38.025,-0.793,29.968
0.454,-0.392,0.871,-22.461,-5.066,25.879
0.434,-0.580,0.712,-14.832,-0.916,19.592
0.411,-0.425,0.660,-16.785,0.732,21.057
0.382,-0.294,0.724,-8.301,-0.061,18.127
0.361,-0.350,0.672,6.714,2.380,10.315
0.355,-0.387,0.703,14.648,4.333,6.653
0.342,-0.505,0.752,24.719,4.883,4.028
0.347,-0.550,0.757,28.137,6.531,2.869
0.364,-0.501,0.780,26.428,7.507,4.211
0.349,-0.575,0.848,27.771,6.287,4.639
0.333,-0.642,0.891,29.907,6.104,6.714
0.316,-0.634,0.897,29.175,7.690,11.353
0.309,-0.612,0.895,29.602,8.362,15.991
0.325,-0.613,0.899,31.982,7.935,20.081
0.369,-0.572,0.880,36.560,6.897,23.437
0.399,-0.603,0.880,42.114,5.432,25.452
0.397,-0.584,0.849,43.396,6.042,26.245
0.381,-0.567,0.792,36.621,8.301,24.231
0.373,-0.614,0.796,28.625,8.789,18.921
0.326,-0.640,0.852,16.663,9.949,13.611
0.293,-0.581,0.846,8.789,13.000,11.353
0.289,-0.577,0.775,3.113,14.160,12.451
0.326,-0.513,1.491,16.479,17.395,16.907
0.419,-0.371,0.926,37.537,47.485,20.020
0.424,-0.430,0.573,28.320,52.612,19.775
0.354,-0.883,0.890,76.416,40.283,11.719
0.439,-0.698,0.798,65.063,40.344,19.287
0.498,-0.682,0.702,34.058,38.269,25.635
0.554,-0.585,0.726,34.729,27.100,23.499
0.520,-0.642,0.699,28.931,17.700,20.691
0.510,-0.562,0.620,17.395,8.362,19.775
0.482,-0.485,0.580,11.780,-0.610,17.395
0.441,-0.442,0.562,10.071,-6.409,13.306
0.444,-0.455,0.596,6.409,-6.775,10.315
0.481,-0.527,0.690,11.597,-5.066,7.996
0.514,-0.538,0.700,18.433,-3.601,6.836
0.551,-0.572,0.690,28.259,-4.578,4.456
0.574,-0.583,0.678,38.269,-7.446,0.793
0.601,-0.625,0.693,43.701,-14.587,-2.380
0.622,-0.602,0.676,43.457,-23.010,-2.930
0.611,-0.604,0.675,41.077,-30.457,-3.235
0.585,-0.642,0.694,39.490,-37.720,-3.662
0.506,-0.680,0.719,35.339,-43.213,-3.357
0.457,-0.675,0.700,23.743,-45.166,-1.343
0.418,-0.687,0.720,7.019,-42.603,2.686
0.406,-0.666,0.742,-3.052,-36.865,6.409
0.379,-0.619,0.718,-10.437,-28.687,10.315
0.359,-0.595,0.688,-17.395,-19.531,13.672
0.366,-0.599,0.712,-16.296,-11.963,14.587
0.432,-0.593,0.717,-9.399,-8.484,13.672
0.463,-0.582,0.720,-5.371,-8.484,11.658
0.490,-0.581,0.689,-1.221,-10.681,9.033
0.477,-0.580,0.676,-1.892,-13.123,7.263
0.468,-0.573,0.654,-4.395,-15.564,6.226
0.442,-0.578,0.659,-3.174,-17.456,5.676
0.409,-0.586,0.702,2.808,-17.700,5.981
,,,,,
-0.952,-1.049,0.691,10.010,38.147,38.086
-1.020,-1.256,0.914,11.902,45.227,49.377
-1.104,-1.454,0.848,11.292,65.186,66.650
-1.046,-1.294,0.718,-9.460,85.510,88.440
-1.105,-1.346,0.866,2.991,92.346,101.318
-1.108,-1.383,0.863,3.113,99.670,114.197
-1.186,-1.622,0.850,-4.639,105.042,127.930
-1.186,-1.773,0.899,0.366,107.788,144.226
-1.112,-1.747,0.969,4.639,108.459,163.086
-1.057,-1.669,1.002,5.310,107.544,179.443
-1.012,-1.612,1.066,8.423,107.361,192.505
-0.936,-1.587,1.144,13.611,109.863,203.186
-0.801,-1.579,1.233,20.935,111.877,212.341
-0.558,-1.593,1.329,27.893,110.291,221.191
-0.269,-1.334,1.323,28.259,110.046,229.126
-0.179,-1.255,1.272,31.433,109.436,225.464
0.035,-1.525,1.379,41.321,105.591,215.332
0.199,-1.735,1.499,46.936,100.952,213.440
0.323,-1.695,1.659,48.584,97.107,220.154
0.397,-1.595,1.577,32.043,99.915,232.300
0.614,-1.490,1.545,8.911,109.802,244.995
0.838,-1.292,1.563,11.841,123.291,254.456
0.976,-0.989,1.437,8.728,135.376,265.930
1.178,-0.812,1.426,24.841,148.254,274.414
1.154,-0.743,1.374,31.372,158.752,286.438
1.124,-0.496,1.430,26.123,172.302,304.443
1.035,-0.230,1.261,11.536,183.594,319.092
0.771,0.038,1.090,-17.517,188.965,328.613
0.680,0.293,0.848,-74.829,208.923,324.280
0.812,0.328,0.974,-132.935,212.646,308.838
0.910,-0.012,0.463,-205.322,197.876,288.513
1.116,1.632,0.089,-404.297,217.590,288.147
1.562,4.000,-0.811,-433.289,277.649,246.277
0.876,3.972,-0.630,-236.694,293.030,92.834
0.001,1.791,-0.636,-60.181,273.926,-80.994
-0.187,0.484,-0.804,26.489,245.483,-167.053
-0.788,0.126,-1.257,11.780,195.374,-190.979
-1.455,0.252,-0.988,-18.799,121.643,-208.496
-1.960,0.040,-0.665,-25.513,50.964,-230.286
-2.456,-0.427,-0.620,-14.099,-5.859,-252.380
-2.904,-0.592,-0.002,-11.108,-46.326,-247.620
-3.343,-1.061,0.423,22.583,-63.171,-237.122
-3.675,-1.970,1.068,37.109,-77.759,-214.661
-3.733,-2.559,1.726,44.617,-93.140,-173.157
-3.491,-2.342,1.247,-26.001,-84.595,-120.422
-2.818,-2.936,1.817,-91.187,-112.793,-92.346
-2.117,-2.810,2.160,-132.324,-121.582,-52.307
-1.571,-2.366,1.387,-198.853,-74.829,5.310
-1.094,-1.522,1.088,-207.397,-22.888,60.242
-0.979,-1.052,1.058,-161.255,27.832,95.459
-0.669,-0.548,0.423,-101.318,83.374,121.460
-0.286,-0.180,-0.017,-55.664,109.497,139.587
-0.005,-0.453,0.383,1.587,95.276,138.062
0.081,-0.052,0.286,15.198,83.374,139.709
0.174,0.042,0.077,3.235,67.200,130.981
0.222,-0.063,0.341,6.836,34.912,115.601
0.308,0.018,0.500,-10.010,8.301,105.408
0.381,-0.009,0.532,-23.254,-8.972,94.604
0.436,-0.052,0.619,-23.865,-21.362,82.153
0.441,-0.083,0.548,-22.278,-26.611,70.618
0.566,-0.074,0.623,-18.799,-29.541,60.730
0.633,-0.071,0.641,-14.099,-27.588,51.514
0.651,-0.138,0.607,-7.019,-23.865,42.664
0.634,-0.208,0.763,0.122,-22.400,36.743
0.587,-0.211,0.869,6.226,-20.081,31.799
0.543,-0.241,0.857,10.803,-15.808,26.550
0.528,-0.316,0.875,19.104,-15.320,20.142
0.512,-0.412,0.891,28.198,-16.602,14.221
0.527,-0.511,0.895,36.560,-17.273,9.521
0.554,-0.548,0.829,43.152,-17.883,6.042
0.582,-0.602,0.813,42.908,-19.897,5.310
0.588,-0.682,0.890,39.551,-23.743,8.179
0.549,-0.740,0.930,31.982,-24.780,14.526
0.486,-0.716,0.924,21.362,-24.414,23.010
0.391,-0.641,0.913,11.536,-25.452,31.189
0.484,-0.631,1.267,11.353,-19.775,36.621
0.423,-0.573,0.845,10.315,-4.700,38.269
0.460,-0.558,0.918,16.174,-1.709,39.429
0.491,-0.469,0.976,32.715,1.282,39.795
0.525,-0.415,0.781,38.879,5.554,40.405
0.596,-0.380,0.791,65.308,4.517,38.147
0.649,-0.420,0.714,83.252,3.784,33.264
0.598,-0.561,0.713,80.444,2.319,21.484
0.455,-0.764,0.748,58.777,-0.488,0.183
0.352,-0.691,0.764,4.333,-1.343,-12.817
0.485,-0.602,0.769,-34.424,-0.671,-13.306
0.551,-0.644,0.755,-46.692,-2.075,-5.615
0.624,-0.650,0.820,-49.744,-1.892,3.662
0.526,-0.665,0.881,-44.312,0.916,12.390
0.489,-0.643,0.861,-38.513,6.531,20.630
0.440,-0.623,0.813,-39.246,14.587,28.625
0.538,-0.570,0.813,-34.668,19.714,33.020
0.554,-0.582,0.791,-19.043,20.386,31.372
0.502,-0.534,0.752,-1.892,19.043,27.832
0.526,-0.509,0.757,4.456,17.883,24.048
0.523,-0.500,0.746,9.521,11.780,19.287
0.484,-0.487,0.653,17.029,3.235,13.733
0.439,-0.484,0.642,29.053,-3.052,8.240
0.470,-0.479,0.594,34.363,-7.568,4.883
0.505,-0.529,0.600,36.133,-13.000,2.747
0.534,-0.570,0.640,34.485,-17.578,2.075
0.518,-0.588,0.675,32.349,-20.630,3.113
0.487,-0.612,0.670,28.748,-21.301,5.981
0.461,-0.596,0.677,22.583,-19.958,9.827
0.423,-0.617,0.695,17.212,-17.273,13.306
0.438,-0.582,0.707,15.137,-14.038,16.357
0.409,-0.534,0.723,11.841,-10.864,18.555
0.398,-0.496,0.715,9.766,-8.911,19.165
0.430,-0.478,0.695,9.216,-6.958,18.188
0.493,-0.471,0.663,11.292,-4.639,15.320
0.526,-0.464,0.637,14.648,-4.211,11.536
0.539,-0.463,0.596,17.822,-5.188,7.568
0.520,-0.470,0.601,20.630,-7.690,4.272
0.501,-0.496,0.596,21.606,-11.169,1.221
0.471,-0.523,0.587,20.020,-15.137,-0.610
0.442,-0.569,0.608,15.076,-18.433,-0.610
0.404,-0.612,0.659,7.324,-20.508,1.465
0.392,-0.627,0.647,-2.686,-20.264,5.737
0.402,-0.576,0.665,-10.376,-17.639,10.498
,,,,,
-0.952,-0.987,0.737,28.809,8.545,10.803
-0.987,-1.043,0.990,27.649,15.320,22.400
-1.015,-1.197,1.118,25.574,29.907,35.889
-0.990,-1.203,1.085,23.376,47.913,54.077
-1.067,-1.345,1.056,27.283,64.331,68.665
-1.083,-1.421,1.139,38.574,76.172,83.923
-1.082,-1.418,1.248,49.561,89.905,100.830
-1.087,-1.534,1.265,60.730,105.774,115.723
-1.153,-1.716,1.130,54.443,120.422,129.456
-1.122,-1.739,1.157,44.434,128.235,145.142
-0.990,-1.722,1.251,43.518,132.263,161.926
-0.758,-1.707,1.304,30.701,132.568,177.673
-0.612,-1.846,1.474,21.240,133.972,187.439
-0.482,-2.049,1.684,12.451,136.780,197.754
-0.421,-2.209,1.862,5.615,135.193,212.158
-0.379,-2.106,1.986,3.723,131.226,228.882
-0.491,-1.731,2.036,10.742,134.033,241.699
-0.479,-1.605,2.005,19.409,146.851,246.826
-0.287,-1.495,1.872,20.264,165.955,256.042
-0.075,-1.404,1.829,23.987,183.838,265.991
0.100,-1.209,1.797,31.799,196.777,275.513
0.207,-0.922,1.701,33.997,206.238,287.659
0.349,-0.592,1.637,25.757,214.355,307.861
0.465,-0.273,1.519,10.193,223.938,325.745
0.531,0.071,1.527,-13.123,242.249,343.506
0.454,0.266,1.427,-44.128,261.169,355.042
0.230,0.419,1.205,-75.806,276.184,358.093
0.036,0.691,0.806,-108.643,287.415,355.164
-0.297,0.847,0.385,-135.315,291.687,339.966
-0.142,1.178,0.097,-176.697,296.875,311.401
0.037,1.317,-0.793,-188.171,308.716,261.902
0.329,1.825,-1.416,-191.162,288.696,206.360
0.703,2.262,-1.544,-141.968,254.944,133.911
1.115,2.397,-1.538,-144.836,212.952,55.786
0.999,1.667,-0.854,-118.530,122.070,-34.973
0.540,0.109,1.221,-27.954,63.416,-126.709
-0.217,-0.038,-0.432,-48.218,122.253,-156.921
-0.757,-0.011,-1.255,-72.815,125.854,-169.800
-0.860,0.131,-0.498,-105.835,61.584,-173.767
-1.365,0.303,-1.215,-95.764,33.203,-179.993
-1.896,-0.017,-0.471,-45.776,-16.724,-202.454
-2.406,-0.579,-0.834,17.883,-52.307,-212.463
-2.804,-1.355,-0.123,64.392,-114.502,-195.801
-2.830,-3.007,3.788,97.046,-158.508,-161.926
-2.361,-2.472,2.018,45.105,-37.720,-90.088
-2.199,-2.043,0.194,-77.515,23.560,-36.438
-2.043,-1.811,1.500,-42.114,-40.527,-23.437
-1.510,-2.036,1.890,-34.424,-82.214,-15.259
-1.321,-1.834,1.254,-99.243,-53.894,5.859
-0.900,-1.317,0.687,-120.239,-22.339,27.710
-0.698,-0.874,0.432,-111.206,-8.423,44.067
-0.113,-0.614,0.653,-111.877,1.526,59.753
0.087,-0.454,0.819,-66.162,10.498,66.345
0.254,-0.123,0.614,-29.053,23.254,67.566
0.519,-0.304,0.619,-17.212,23.682,62.012
0.630,-0.269,0.618,-11.902,9.888,59.692
0.635,-0.187,0.612,-19.409,-5.920,54.626
0.546,-0.156,0.706,-27.527,-21.484,48.218
0.472,-0.164,0.816,-34.729,-31.250,42.358
0.461,-0.165,0.845,-44.739,-31.616,39.307
0.423,-0.164,0.817,-46.997,-26.367,36.133
0.490,-0.220,0.854,-37.354,-18.677,30.945
0.539,-0.202,0.814,-28.931,-9.888,25.574
0.584,-0.205,0.783,-16.968,-5.310,18.372
0.628,-0.230,0.798,-2.930,-5.798,9.949
0.632,-0.273,0.812,3.967,-8.667,3.540
0.609,-0.283,0.826,6.470,-12.024,-1.282
0.553,-0.312,0.857,8.972,-16.846,-5.188
0.486,-0.346,0.887,14.221,-21.606,-8.240
0.439,-0.417,0.910,22.156,-23.926,-10.315
0.421,-0.498,0.961,30.518,-23.071,-10.498
0.382,-0.567,0.954,37.170,-19.409,-8.911
0.348,-0.629,0.995,39.246,-12.756,-5.493
0.338,-0.682,1.031,39.551,-5.249,-1.221
0.326,-0.680,1.021,37.415,2.258,3.967
0.330,-0.639,0.995,38.025,8.179,8.057
0.334,-0.599,0.983,41.687,12.390,11.536
0.362,-0.586,0.935,47.546,16.541,14.404
0.415,-0.591,0.899,53.589,21.179,16.357
0.450,-0.611,0.858,57.495,25.024,14.832
0.462,-0.664,0.804,54.260,27.649,9.155
0.466,-0.698,0.794,42.480,28.015,1.831
0.539,-0.694,0.843,27.832,26.489,-1.160
0.592,-0.716,0.826,15.686,23.682,2.380
0.612,-0.692,0.782,2.991,20.386,10.437
0.573,-0.665,0.811,-5.493,14.465,17.639
0.513,-0.648,0.853,-15.503,9.216,22.827
0.497,-0.602,0.866,-21.729,6.958,26.978
0.505,-0.572,0.825,-21.240,6.592,30.334
0.512,-0.552,0.768,-18.494,7.446,32.532
0.509,-0.543,0.763,-13.550,8.545,33.142
0.513,-0.546,0.778,-7.507,10.254,33.020
0.538,-0.540,0.774,-2.625,11.719,32.166
0.570,-0.525,0.770,5.371,10.742,30.579
0.583,-0.506,0.774,13.550,6.653,28.809
0.571,-0.510,0.778,18.799,2.136,27.039
0.538,-0.494,0.755,21.179,-1.709,25.574
0.502,-0.473,0.705,17.639,-4.028,25.269
0.479,-0.472,0.685,10.986,-5.615,25.574
0.453,-0.475,0.686,4.822,-6.042,26.123
0.431,-0.454,0.662,-0.061,-6.104,26.672
0.457,-0.440,0.661,-3.601,-4.761,26.489
0.510,-0.453,0.680,-3.967,-3.052,25.452
0.545,-0.449,0.694,-1.465,-1.526,24.109
0.550,-0.426,0.677,1.343,-0.916,22.461
0.532,-0.412,0.672,3.784,-1.892,20.691
0.508,-0.403,0.659,4.700,-3.296,18.982
0.483,-0.403,0.652,5.981,-5.127,16.907
0.469,-0.399,0.634,7.751,-7.446,14.709
0.462,-0.432,0.642,7.996,-10.071,13.000
0.456,-0.477,0.675,7.812,-12.451,11.536
0.453,-0.459,0.656,7.324,-13.794,10.437
0.484,-0.448,0.627,3.601,-13.855,10.742
0.495,-0.424,0.605,-2.502,-12.146,12.695
0.475,-0.423,0.634,-2.502,-11.169,13.916
0.470,-0.437,0.619,-0.122,-11.108,13.489
0.459,-0.414,0.644,3.235,-12.146,13.184
0.435,-0.394,0.658,3.052,-13.611,12.634
0.423,-0.396,0.668,2.930,-16.418,10.925
,,,,,
-0.948,-0.937,0.852,-0.549,4.578,11.597
-0.968,-1.067,0.908,13.123,12.024,19.592
-0.994,-1.159,0.918,25.146,20.691,30.029
-1.018,-1.202,0.946,32.410,29.724,43.274
-1.045,-1.289,0.932,41.687,39.307,55.481
-1.050,-1.401,0.927,46.631,49.438,68.237
-1.091,-1.432,0.947,48.706,59.448,81.726
-1.026,-1.456,0.985,51.086,68.237,94.788
-1.062,-1.535,1.158,50.049,74.219,108.948
-1.050,-1.653,1.205,51.758,83.374,122.375
-1.041,-1.705,1.119,37.842,91.370,137.329
-1.100,-1.744,1.080,24.170,94.177,152.527
-1.087,-1.758,1.109,15.869,100.830,167.847
-1.040,-1.769,1.141,7.019,109.924,182.312
-0.962,-1.756,1.161,1.587,119.263,195.618
-0.901,-1.725,1.241,2.502,127.930,207.214
-0.789,-1.782,1.379,9.094,131.897,216.980
-0.620,-1.872,1.512,17.700,131.409,227.051
-0.455,-1.868,1.606,31.799,126.587,237.427
-0.396,-1.846,1.581,37.659,122.925,247.498
-0.425,-1.720,1.519,38.269,122.131,258.484
-0.265,-1.472,1.444,38.818,125.244,271.790
-0.070,-1.060,1.311,38.940,127.563,286.926
0.105,-0.697,1.171,26.672,132.629,301.025
0.406,-0.294,1.106,4.150,143.982,314.636
0.879,0.222,1.179,-22.766,150.330,329.529
1.381,0.748,1.208,-71.167,155.945,340.576
1.551,0.167,1.355,-125.427,162.720,338.318
1.230,-0.659,1.138,-67.444,163.635,330.261
0.376,-0.536,1.263,-39.185,157.532,351.501
0.072,0.809,1.330,-148.132,192.261,382.935
0.046,1.535,0.489,-210.083,266.174,359.802
0.662,3.104,-0.254,-201.538,339.966,320.679
1.627,4.000,-1.112,-177.063,400.024,242.126
1.659,3.988,-2.236,-63.110,427.917,130.493
1.834,1.729,-2.474,-0.671,346.680,7.568
0.839,0.202,-2.243,-4.150,209.900,-63.171
0.451,1.493,0.340,-93.750,78.857,-89.966
-0.314,1.694,1.120,-122.803,64.758,-138.550
-1.588,0.599,-0.776,-157.898,124.023,-230.042
-2.883,-0.230,-1.121,-89.722,76.233,-281.189
-3.116,-1.800,-0.373,-43.884,-30.029,-320.618
-3.995,-2.974,0.098,-23.376,-119.934,-297.302
-4.000,-4.000,3.373,64.941,-203.979,-235.840
-4.000,-4.000,3.205,146.179,-141.907,-133.240
-4.000,-4.000,1.467,18.555,-38.696,-1.587
-3.619,-4.000,2.645,-52.673,-32.288,114.807
-2.867,-2.717,1.956,-190.979,19.714,233.276
-1.473,0.031,0.315,-276.306,107.300,297.424
-0.526,1.722,-0.569,-255.005,130.920,245.850
-0.107,1.635,-0.332,-184.082,90.454,156.311
0.782,0.301,0.574,-71.167,84.045,104.614
0.981,-0.015,-0.197,-68.237,123.047,104.065
1.220,1.537,-1.003,-94.055,115.784,117.981
1.376,1.387,-0.205,18.555,44.800,69.214
1.235,0.969,0.758,77.576,-19.287,14.771
1.162,0.633,0.094,12.268,-25.085,-4.150
1.088,0.208,0.346,10.132,-48.340,-17.212
0.921,-0.125,0.864,2.930,-73.425,-24.902
0.900,-0.287,0.672,-28.992,-63.538,-22.400
0.742,-0.286,0.724,-51.514,-57.373,-17.761
0.619,-0.244,1.031,-21.301,-53.894,-23.499
0.443,-0.490,1.022,-8.606,-41.199,-29.907
0.407,-0.732,0.983,0.061,-26.367,-31.982
0.348,-0.849,1.070,7.507,-18.250,-29.480
0.360,-0.891,0.994,4.150,-7.446,-25.208
0.329,-0.806,0.852,-1.160,-0.488,-21.423
0.428,-0.911,0.938,1.648,0.610,-19.714
0.424,-0.716,0.770,-4.150,3.662,-16.113
0.492,-0.667,0.739,-9.888,5.798,-13.611
0.511,-0.660,0.696,-5.737,4.028,-11.475
0.549,-0.597,0.661,4.517,1.343,-9.155
0.567,-0.579,0.667,12.146,-2.686,-7.996
0.571,-0.568,0.696,13.489,-6.592,-6.531
0.561,-0.534,0.696,8.118,-9.949,-3.662
0.540,-0.518,0.710,3.906,-12.756,-1.648
0.525,-0.567,0.773,5.493,-15.076,-0.854
0.522,-0.599,0.802,7.996,-13.672,0.244
0.528,-0.600,0.764,10.681,-10.132,2.014
0.545,-0.602,0.775,17.517,-8.362,3.601
0.561,-0.621,0.824,24.719,-7.629,5.371
0.555,-0.626,0.813,27.893,-5.127,7.080
0.565,-0.624,0.803,30.640,-3.296,8.240
0.548,-0.626,0.796,36.499,-2.869,6.287
0.569,-0.648,0.807,36.743,-3.601,2.686
0.495,-0.689,0.859,28.870,-4.700,-2.136
0.467,-0.680,0.877,14.954,-3.357,-6.897
0.492,-0.634,0.782,-0.610,0.000,-8.606
0.510,-0.661,0.752,-8.118,0.244,-8.301
0.637,-0.748,1.145,6.104,7.568,-6.409
0.562,-0.678,0.588,-5.371,27.832,-0.793
0.612,-0.679,0.688,-10.742,25.208,6.470
0.637,-0.691,0.875,4.761,19.470,10.132
0.625,-0.679,0.722,-12.878,15.076,14.648
0.607,-0.643,0.785,-4.517,2.808,15.198
0.619,-0.597,0.794,-4.272,-7.751,16.357
0.598,-0.567,0.759,-10.315,-16.235,17.761
0.556,-0.531,0.753,-5.554,-23.865,17.151
0.513,-0.507,0.724,-0.916,-29.846,15.625
0.481,-0.479,0.704,5.615,-32.715,14.526
0.475,-0.473,0.677,10.803,-31.372,13.489
0.495,-0.464,0.700,15.259,-26.794,12.268
0.511,-0.537,0.732,22.888,-20.386,10.010
0.508,-0.594,0.713,25.208,-13.916,9.216
0.490,-0.594,0.732,25.757,-10.132,9.033
0.509,-0.619,0.750,23.132,-6.958,8.789
0.517,-0.623,0.718,12.878,-5.493,10.071
0.530,-0.567,0.716,2.625,-6.226,11.536
0.526,-0.525,0.714,-4.395,-9.460,12.451
0.520,-0.497,0.705,-11.169,-13.611,12.634
0.521,-0.475,0.708,-12.573,-17.151,12.085
0.510,-0.481,0.697,-11.719,-18.433,11.169
0.499,-0.465,0.678,-8.850,-17.273,11.475
0.516,-0.397,0.652,-5.371,-13.611,11.902
0.521,-0.417,0.626,-0.854,-8.972,10.559
0.517,-0.459,0.636,4.517,-5.676,9.949
0.517,-0.485,0.658,12.451,-4.456,9.827
0.514,-0.468,0.663,19.592,-4.639,9.155
0.506,-0.473,0.665,24.170,-6.897,8.057
,,,,,
-0.843,-0.776,0.992,39.551,30.701,27.771
-0.872,-0.870,0.984,40.466,41.992,34.302
-0.863,-0.950,0.936,37.964,52.856,41.626
-0.912,-1.003,1.026,38.147,60.913,49.438
-0.847,-0.934,0.983,38.086,72.998,56.702
-0.846,-0.907,0.930,32.837,78.979,63.782
-0.870,-0.942,0.978,41.077,79.956,68.054
-0.847,-0.966,1.037,46.326,83.435,71.838
-0.781,-0.991,1.085,50.293,86.548,77.332
-0.755,-1.055,1.102,51.697,90.332,84.839
-0.705,-1.031,1.117,51.575,95.398,91.980
-0.688,-1.089,1.164,54.932,100.098,96.436
-0.718,-1.157,1.252,60.669,106.079,102.417
-0.597,-1.089,1.222,55.176,117.737,113.525
-0.480,-0.994,1.200,50.537,130.676,121.765
-0.408,-0.982,1.253,53.650,145.020,124.084
-0.455,-1.405,1.312,51.941,163.635,127.625
-0.227,-1.024,1.188,37.903,180.359,139.404
-0.330,-1.362,1.261,34.058,183.228,139.343
-0.253,-1.388,1.329,31.067,187.500,148.376
-0.189,-1.325,1.303,21.484,189.575,160.583
-0.123,-1.257,1.300,25.208,183.167,169.067
-0.054,-1.156,1.232,26.184,178.528,177.429
0.031,-1.058,1.175,30.212,177.673,184.326
0.133,-1.007,1.167,32.532,182.312,189.575
0.213,-1.049,1.187,34.485,190.247,193.298
0.292,-1.118,1.106,36.926,195.862,197.388
0.424,-1.038,1.125,51.758,192.932,203.796
0.443,-0.900,1.121,52.856,188.660,210.571
0.515,-0.781,1.064,49.927,182.556,214.661
0.706,-0.741,1.062,37.415,180.603,218.750
0.931,-0.583,1.017,15.869,179.871,230.103
1.161,-0.309,0.995,-2.869,177.124,238.037
1.340,0.051,0.992,-18.066,174.561,243.530
1.488,0.394,0.985,-25.940,174.072,240.479
1.547,0.880,0.710,-35.950,180.115,230.225
1.641,1.503,0.342,-35.217,191.528,208.557
1.657,2.450,-0.075,-15.076,207.458,169.617
1.827,3.095,-1.092,-35.828,223.816,115.417
2.030,2.947,-1.880,-48.096,209.045,60.669
1.907,3.183,-2.678,-5.310,165.771,14.465
1.157,2.790,-2.257,-2.625,100.708,-57.434
0.798,1.381,-2.176,-68.298,38.269,-127.869
1.983,-1.316,-1.874,-228.699,-45.471,-185.974
0.233,0.446,3.534,-142.273,-267.944,-245.789
-2.362,-1.559,1.950,-39.795,-157.104,-312.866
-3.435,-0.358,0.931,-260.742,23.499,-265.564
-4.000,-0.100,-0.260,-105.286,22.217,-266.052
-4.000,-3.800,-0.133,-23.193,-49.500,-316.895
-4.000,-4.000,0.612,39.917,-139.404,-263.855
-4.000,-4.000,4.000,147.644,-151.306,-112.305
-4.000,-4.000,2.323,62.988,-9.644,10.376
-3.997,-3.825,1.168,-91.553,103.821,164.978
-3.034,-1.719,1.687,-96.802,140.808,305.481
-2.298,-0.409,0.609,-213.196,211.243,382.629
-0.487,1.356,-0.601,-178.162,240.540,373.901
-0.543,1.711,-0.697,-76.782,178.101,270.386
-0.494,0.060,-0.068,22.583,98.206,155.029
-0.181,-0.151,0.237,18.982,75.317,143.311
0.067,0.564,-0.036,-5.188,82.214,164.856
0.422,1.016,0.066,-4.456,72.388,166.321
0.607,1.082,0.003,4.272,68.359,144.775
0.983,1.226,-0.271,1.465,68.542,123.108
1.241,1.198,-0.385,-13.062,58.838,102.478
1.444,1.134,-0.369,-11.780,29.419,71.960
1.420,0.598,-0.159,-7.996,-9.460,37.048
1.374,0.497,0.099,-19.775,-42.542,15.991
1.190,0.538,0.334,-30.151,-64.636,2.869
0.995,0.258,0.427,-21.484,-77.637,-13.916
0.839,0.025,0.577,-18.738,-87.769,-23.193
0.663,-0.175,0.837,-7.202,-96.069,-27.832
0.485,-0.389,1.068,0.122,-91.553,-27.954
0.371,-0.633,1.175,-3.906,-74.036,-23.132
0.327,-0.742,1.234,-6.226,-52.734,-16.174
0.347,-0.769,1.252,0.122,-35.278,-10.742
0.406,-0.787,1.248,-1.648,-21.362,-7.385
0.451,-0.737,1.175,-4.822,-10.742,-5.554
0.500,-0.693,1.106,-0.732,-4.395,-6.592
0.539,-0.640,1.017,6.653,-2.441,-7.874
0.559,-0.588,0.898,15.015,-3.906,-8.240
0.587,-0.585,0.804,22.400,-8.057,-7.935
0.613,-0.600,0.774,28.015,-13.367,-6.714
0.584,-0.564,0.758,31.189,-17.029,-4.578
0.599,-0.562,0.774,31.189,-17.456,-1.953
0.583,-0.544,0.803,30.823,-13.428,2.380
0.583,-0.516,0.797,32.837,-7.996,7.080
0.588,-0.486,0.792,41.504,-5.188,10.071
0.611,-0.444,0.780,51.819,-4.761,10.986
0.640,-0.484,0.788,57.617,-5.188,7.935
0.632,-0.624,0.808,51.331,-1.953,0.244
0.634,-0.692,0.807,24.170,4.028,-9.521
0.681,-0.665,0.828,-0.671,6.348,-18.188
0.709,-0.518,0.808,-17.883,4.272,-19.592
0.761,-0.493,0.776,-29.114,-1.099,-16.052
0.772,-0.531,0.818,-27.710,-9.033,-8.728
0.706,-0.566,0.810,-25.391,-14.343,-2.686
0.603,-0.544,0.756,-23.010,-17.334,-1.099
0.552,-0.535,0.726,-21.301,-21.362,-2.747
0.565,-0.612,0.770,-22.888,-26.001,-4.028
0.600,-0.635,0.855,-23.193,-26.733,-2.930
0.589,-0.601,0.862,-20.020,-22.034,0.671
0.589,-0.566,0.851,-16.968,-14.526,4.944
0.583,-0.561,0.832,-5.066,-11.963,6.897
0.564,-0.571,0.839,8.606,-13.367,7.019
0.531,-0.560,0.841,12.085,-14.587,6.836
0.501,-0.546,0.811,8.179,-14.099,6.409
0.506,-0.532,0.770,2.014,-12.146,5.737
0.508,-0.520,0.763,3.906,-10.803,4.456
0.515,-0.494,0.742,11.230,-10.315,3.174
0.529,-0.531,0.716,20.081,-10.498,1.526
0.558,-0.613,0.729,28.503,-11.475,0.671
0.562,-0.660,0.747,32.532,-11.475,2.075
0.526,-0.663,0.700,29.480,-10.010,6.226
0.500,-0.646,0.673,24.658,-8.362,10.498
0.490,-0.615,0.679,16.907,-7.080,14.709
0.487,-0.573,0.699,6.958,-6.409,18.066
0.487,-0.529,0.707,-0.488,-7.019,19.592
0.484,-0.477,0.694,-5.005,-8.057,19.409
0.482,-0.427,0.676,-7.751,-8.972,17.395
,,,,,
-0.900,-0.869,0.941,68.176,13.916,2.686
-0.891,-0.957,0.993,73.547,24.536,12.085
-0.874,-1.025,1.042,71.899,36.316,21.851
-0.895,-1.125,1.058,72.021,50.903,31.372
-0.903,-1.182,0.990,63.110,64.514,41.992
-0.940,-1.252,1.034,57.434,70.557,53.345
-0.945,-1.314,1.132,57.495,75.317,65.857
-0.917,-1.348,1.140,55.420,82.764,79.651
-0.958,-1.375,1.142,55.664,90.759,93.140
-0.916,-1.405,1.163,57.068,99.731,105.225
-0.905,-1.521,1.171,58.899,106.689,116.943
-0.895,-1.599,1.216,61.523,110.718,128.479
-0.860,-1.675,1.320,58.899,112.000,140.259
-0.729,-1.796,1.352,39.673,110.718,154.053
-0.608,-1.805,1.353,16.785,106.934,167.786
-0.475,-1.837,1.394,4.883,103.394,176.758
-0.435,-1.949,1.500,-9.399,100.586,187.866
-0.325,-1.924,1.593,-17.761,100.952,201.721
-0.085,-1.589,1.581,-20.264,104.675,217.163
0.252,-1.344,1.586,-22.583,110.718,228.455
0.473,-1.330,1.617,-28.137,117.676,232.361
0.564,-1.342,1.648,-28.931,127.258,233.704
0.513,-1.262,1.645,-20.325,137.695,238.708
0.557,-0.986,1.573,-23.376,149.170,251.221
0.681,-0.559,1.429,-31.799,164.795,268.005
0.752,-0.149,1.329,-28.076,184.387,277.710
0.798,0.190,1.155,-56.396,206.848,283.508
0.948,-0.339,1.385,-155.823,234.619,299.133
1.187,-0.304,0.664,-164.246,247.498,301.086
1.060,-0.401,1.149,-6.531,200.867,291.931
0.708,0.193,1.339,3.601,179.626,302.734
0.854,0.819,1.033,-126.770,207.458,306.885
0.664,1.550,0.644,-116.760,249.329,272.095
0.523,1.451,0.965,-60.242,302.856,207.031
0.309,1.296,-0.779,-142.700,390.259,150.024
0.783,2.352,-1.641,-152.466,409.607,106.567
0.396,2.554,-1.594,-64.880,340.271,29.480
0.097,1.608,-2.048,-17.517,267.456,-70.496
-0.501,1.123,-1.482,-25.452,176.941,-136.292
-1.277,1.127,-0.908,-14.587,101.563,-187.927
-1.753,0.506,0.053,39.734,46.021,-241.516
-2.227,-0.408,-0.383,19.714,30.884,-270.142
-2.916,-0.840,-0.146,44.922,-1.709,-267.883
-3.276,-1.233,0.849,109.619,-19.226,-253.845
-3.707,-1.841,0.754,81.299,5.798,-220.215
-4.000,-2.782,1.259,42.175,1.465,-175.049
-3.892,-3.222,1.576,-10.864,-25.146,-119.385
-2.544,-2.627,1.420,-77.087,-76.538,-56.824
-1.630,-2.581,1.665,-146.179,-108.398,-29.114
-1.227,-2.265,1.578,-196.289,-92.590,-0.732
-0.881,-1.576,1.275,-196.472,-58.838,39.612
-0.230,-0.800,1.086,-152.100,-21.912,82.397
0.007,-0.819,0.816,-99.365,5.981,109.497
-0.026,-0.550,0.573,-74.219,25.085,130.798
0.370,-0.455,0.791,-55.725,27.649,134.644
0.404,-0.309,0.670,-44.556,21.545,123.413
0.392,-0.246,0.733,-33.569,11.353,106.934
0.382,-0.157,0.807,-34.790,2.747,97.168
0.361,-0.164,0.748,-27.405,-0.916,86.853
0.377,-0.179,0.599,-13.916,-0.305,76.477
0.527,-0.241,0.859,-6.042,0.732,66.467
0.513,-0.243,0.706,3.296,5.371,56.702
0.587,-0.209,0.679,-1.953,12.268,51.880
0.618,-0.211,0.666,-4.822,12.939,46.875
0.693,-0.240,0.616,-2.869,11.963,39.368
0.639,-0.279,0.586,5.798,8.240,31.128
0.614,-0.260,0.532,7.690,4.578,26.123
0.631,-0.322,0.625,9.888,-0.488,22.217
0.623,-0.430,0.564,18.127,-3.967,16.541
0.640,-0.465,0.574,20.264,-7.751,15.015
0.624,-0.533,0.625,22.766,-13.367,14.587
0.594,-0.578,0.663,17.273,-16.052,16.785
0.554,-0.594,0.764,11.597,-16.052,20.447
0.513,-0.598,0.842,9.827,-13.245,24.719
0.495,-0.513,0.853,5.554,-8.423,29.846
0.519,-0.480,0.859,5.188,-5.554,33.386
0.580,-0.512,0.889,10.620,-4.395,34.790
0.614,-0.555,0.921,16.113,-3.235,35.461
0.593,-0.530,0.855,22.339,-1.404,36.011
0.555,-0.478,0.903,29.480,0.000,35.767
0.586,-0.498,1.103,48.584,9.155,33.813
0.536,-0.491,0.610,46.265,24.353,31.921
0.530,-0.558,0.737,47.363,23.437,27.222
0.572,-0.602,0.781,35.828,23.071,17.273
0.552,-0.636,0.705,-0.183,23.560,9.521
0.636,-0.520,0.723,-16.113,21.790,5.493
0.697,-0.496,0.611,-22.644,18.677,7.141
0.735,-0.480,0.628,-17.883,14.282,12.573
0.720,-0.529,0.640,-9.705,9.460,17.578
0.658,-0.543,0.645,-11.780,5.310,20.874
0.608,-0.535,0.658,-17.273,1.221,22.095
0.572,-0.501,0.645,-13.794,-5.737,21.423
0.566,-0.420,0.635,-11.719,-10.864,22.095
0.581,-0.405,0.660,-11.108,-15.747,21.667
0.582,-0.453,0.697,-0.488,-20.569,18.005
0.624,-0.456,0.709,0.488,-19.348,15.808
0.627,-0.436,0.687,10.498,-17.395,13.184
0.642,-0.430,0.624,7.935,-13.367,12.695
0.634,-0.506,0.664,12.695,-9.460,11.719
0.642,-0.553,0.643,8.667,-6.409,11.230
0.644,-0.514,0.654,3.296,-5.920,12.207
0.582,-0.467,0.636,2.319,-9.521,12.085
0.561,-0.463,0.661,-1.099,-13.428,11.414
0.590,-0.446,0.704,-3.113,-16.602,11.047
0.579,-0.412,0.682,-2.502,-20.752,10.803
0.575,-0.385,0.695,4.761,-24.536,9.033
0.583,-0.397,0.704,12.634,-24.536,6.165
0.590,-0.434,0.689,18.311,-22.827,4.028
0.570,-0.438,0.652,22.705,-21.179,2.747
0.556,-0.438,0.638,25.208,-18.982,2.014
0.533,-0.479,0.667,25.269,-17.212,1.404
0.528,-0.498,0.676,21.973,-14.954,2.197
0.483,-0.489,0.630,16.663,-12.634,3.418
0.468,-0.470,0.655,10.071,-9.766,4.700
0.490,-0.467,0.656,3.601,-6.226,5.981
0.526,-0.476,0.638,-0.793,-5.493,6.409
0.551,-0.467,0.640,-2.197,-8.118,5.554
0.562,-0.448,0.642,-1.404,-11.536,3.540
0.571,-0.455,0.641,0.244,-14.709,1.221
,,,,,
-0.838,-0.929,0.928,30.151,59.937,36.194
-0.835,-0.946,0.955,32.898,73.364,43.152
-0.816,-0.948,0.926,31.860,86.853,50.476
-0.782,-0.880,0.947,32.288,97.656,57.068
-0.796,-0.890,0.923,32.349,105.408,62.317
-0.761,-0.902,0.961,38.025,110.046,67.871
-0.743,-0.990,0.982,41.443,115.845,72.571
-0.717,-1.081,1.020,44.067,122.559,77.698
-0.683,-1.125,1.075,46.814,127.869,84.412
-0.681,-1.170,1.131,51.025,130.554,92.651
-0.706,-1.223,1.168,50.659,131.897,102.661
-0.646,-1.245,1.193,50.232,133.484,113.342
-0.641,-1.268,1.239,51.392,136.780,122.498
-0.591,-1.254,1.255,50.964,140.503,130.249
-0.551,-1.253,1.264,51.147,142.822,137.207
-0.515,-1.242,1.322,54.077,145.630,143.311
-0.441,-1.262,1.362,53.955,151.978,150.208
-0.342,-1.289,1.377,53.894,159.790,157.715
-0.216,-1.301,1.336,50.293,165.710,166.443
-0.077,-1.285,1.291,46.570,167.297,174.377
0.084,-1.211,1.254,42.847,165.222,180.298
0.230,-1.130,1.220,39.124,160.767,184.509
0.398,-1.042,1.191,34.607,155.884,186.890
0.660,-0.966,1.181,28.809,151.978,190.002
0.764,-0.759,1.130,18.677,146.790,197.021
0.981,-0.692,1.140,3.357,144.531,203.613
1.298,-0.648,1.073,-16.846,146.301,210.815
1.552,-0.600,1.058,-28.259,148.682,217.163
1.596,-0.456,1.026,-35.034,153.442,223.511
1.570,-0.228,0.942,-44.983,162.598,229.553
1.407,-0.001,0.876,-51.025,170.227,229.919
1.369,0.156,0.738,-49.927,170.715,222.351
1.307,0.203,0.579,-49.622,167.480,208.740
1.181,-0.030,0.146,-71.533,159.241,192.566
1.251,0.383,-0.235,-130.737,153.076,192.749
2.205,2.268,-0.865,-196.045,147.949,185.242
2.086,4.000,-0.428,-192.139,117.188,116.455
1.557,4.000,-0.420,-24.109,101.807,-14.526
1.885,3.393,-0.620,20.325,154.663,-135.254
1.072,1.618,-0.548,6.287,200.745,-220.337
0.316,0.010,-0.787,97.351,135.498,-277.649
-0.787,-1.246,-0.648,28.198,134.277,-272.705
-1.590,-1.167,-0.513,-90.210,130.005,-230.591
-2.687,0.406,-0.623,-194.519,106.689,-187.134
-3.700,0.825,-0.205,-189.026,41.077,-212.891
-4.000,0.298,-0.806,-116.394,-36.194,-261.047
-4.000,-0.899,-0.439,14.099,-162.781,-287.781
-4.000,-2.876,4.000,127.991,-275.452,-268.372
-4.000,-3.683,3.695,169.800,-140.015,-181.152
-3.638,-3.998,-0.334,190.857,6.531,-67.993
-1.708,-3.518,2.314,101.379,-57.861,38.635
-1.943,-4.000,2.805,62.134,7.446,127.747
-2.079,-2.341,1.868,-19.043,14.709,208.008
-1.591,-0.184,0.201,-155.273,94.910,246.887
-1.328,-0.157,0.167,-165.527,99.060,200.684
-0.690,-0.384,-0.017,-196.228,72.388,181.335
0.020,-0.151,0.510,-182.495,53.406,186.401
0.316,0.017,0.522,-150.879,51.941,196.533
0.367,0.178,-0.039,-124.756,52.612,191.711
0.376,0.553,-0.288,-65.125,41.138,167.664
0.556,0.960,0.362,-35.583,3.357,145.935
0.710,0.729,0.859,-29.907,-12.817,117.676
0.897,0.667,0.606,-33.081,3.174,95.154
1.000,0.621,0.277,-40.894,11.780,77.148
1.008,0.454,0.493,-41.565,0.671,56.152
0.914,0.539,0.815,-30.029,-8.545,34.973
0.752,0.466,0.740,-5.127,-4.089,10.498
0.631,0.289,0.592,24.353,-3.296,-12.390
0.622,0.008,0.694,51.208,-10.376,-30.579
0.571,-0.191,0.885,70.007,-16.235,-41.443
0.534,-0.591,0.882,81.055,-9.277,-49.255
0.456,-0.896,0.852,80.505,-0.427,-46.814
0.391,-0.987,1.004,71.106,3.052,-35.034
0.354,-0.995,1.154,53.589,11.047,-20.325
0.324,-0.954,1.016,34.668,25.940,-6.958
0.289,-0.937,0.939,24.475,33.020,3.235
0.282,-0.879,0.929,19.836,34.363,11.658
0.306,-0.743,0.832,19.653,33.875,17.761
0.341,-0.759,0.795,21.057,27.771,19.958
0.396,-0.844,0.877,20.935,19.531,21.851
0.423,-0.788,1.051,12.695,15.930,27.527
0.521,-0.562,0.713,8.362,22.156,32.776
0.556,-0.602,0.637,19.592,16.541,30.457
0.617,-0.572,0.797,17.883,8.057,31.433
0.659,-0.556,0.875,23.071,6.592,34.241
0.685,-0.592,0.838,39.734,10.437,37.292
0.732,-0.684,0.924,55.786,17.639,41.565
0.618,-0.649,0.819,58.167,31.311,41.687
0.501,-0.840,0.689,46.936,37.415,24.353
0.381,-0.851,0.582,-1.892,14.526,15.686
0.380,-0.633,0.645,-46.204,-2.747,8.789
0.555,-0.739,0.727,-72.571,-7.080,7.385
0.764,-0.641,0.616,-78.491,-0.305,21.118
0.820,-0.482,0.652,-66.162,3.601,35.767
0.848,-0.537,0.768,-46.204,8.118,40.100
0.827,-0.554,0.701,-26.245,8.362,39.795
0.725,-0.629,0.615,-18.066,3.479,33.936
0.649,-0.553,0.754,-25.696,-5.798,28.809
0.641,-0.510,0.725,-26.245,-10.071,26.733
0.679,-0.466,0.534,-11.353,-8.606,25.940
0.702,-0.465,0.618,0.793,-11.841,24.170
0.697,-0.511,0.774,7.141,-18.372,23.682
0.680,-0.579,0.732,14.404,-18.555,22.888
0.623,-0.525,0.638,16.235,-16.174,24.658
0.651,-0.398,0.700,13.245,-18.555,28.198
0.671,-0.450,0.786,11.658,-19.165,25.269
0.633,-0.518,0.755,19.226,-14.099,19.104
0.645,-0.494,0.653,18.921,-8.606,17.639
0.655,-0.489,0.669,14.648,-7.751,18.555
0.662,-0.474,0.701,11.658,-5.554,19.897
0.663,-0.445,0.668,12.878,-2.197,21.240
0.643,-0.413,0.598,16.846,-0.427,21.545
0.605,-0.402,0.565,23.132,-1.770,20.508
0.572,-0.405,0.557,27.466,-4.517,18.433
0.554,-0.416,0.560,28.687,-7.874,16.357
0.565,-0.439,0.544,29.236,-9.094,13.733
0.590,-0.459,0.494,29.175,-8.118,10.071
0.622,-0.500,0.510,26.672,-8.728,8.423
0.671,-0.529,0.524,17.578,-8.789,11.414
,,,,,
-0.756,-0.946,0.995,19.592,46.143,49.072
-0.792,-0.964,1.048,27.405,54.077,56.396
-0.828,-0.988,1.100,31.372,60.913,64.758
-0.730,-0.926,0.995,17.578,69.214,76.050
-0.713,-0.938,1.074,20.996,73.547,80.994
-0.654,-0.911,1.156,23.865,75.195,84.778
-0.632,-1.000,1.244,21.606,74.768,88.562
-0.644,-1.098,1.343,20.630,75.745,94.055
-0.650,-1.187,1.405,18.127,81.421,101.196
-0.656,-1.275,1.515,21.301,90.332,110.474
-0.650,-1.484,1.657,28.625,100.037,120.178
-0.730,-1.509,1.771,42.603,105.225,130.066
-0.762,-1.306,1.724,58.716,106.506,138.916
-0.820,-1.171,1.585,64.758,110.535,144.653
-0.785,-1.008,1.484,59.143,117.126,150.269
-0.614,-0.833,1.302,44.495,123.047,151.733
-0.304,-0.716,1.164,33.020,132.202,145.203
-0.040,-0.572,1.036,8.545,144.470,141.785
0.328,-0.431,0.809,-7.690,156.067,134.705
0.753,-0.392,0.771,-17.944,154.419,130.859
1.141,-0.354,0.670,-23.132,158.997,132.812
1.400,-0.295,0.501,-32.166,163.757,143.433
1.520,-0.229,0.438,-27.832,161.621,158.386
1.712,-0.221,0.572,-17.883,161.072,174.988
1.594,0.107,0.627,-17.517,165.466,196.289
1.818,0.549,0.685,-67.993,165.771,224.548
2.214,1.351,0.833,-178.650,180.176,239.197
1.449,0.340,1.324,-316.895,199.951,220.093
1.287,-0.312,-0.297,-227.234,234.253,171.814
1.287,0.065,0.280,-143.921,217.651,172.058
1.671,1.363,-0.051,-133.179,221.619,170.959
1.647,2.618,-0.801,-30.945,258.850,118.164
1.666,3.674,-1.165,-47.913,280.151,43.030
1.468,2.961,-2.016,44.983,292.297,-65.857
0.998,1.122,-2.041,194.763,234.314,-169.861
0.449,0.070,-1.921,160.583,147.766,-204.590
-0.009,-0.044,-0.969,83.923,40.527,-207.214
-1.003,0.454,-0.568,13.489,-18.311,-216.431
-2.174,0.268,-0.254,83.313,-40.833,-256.409
-3.550,-0.481,-0.322,90.210,-64.514,-298.401
-4.000,-1.209,-0.435,114.746,-109.375,-309.143
-4.000,-1.937,-0.283,56.213,-177.979,-293.518
-4.000,-4.000,4.000,66.223,-257.141,-261.902
-4.000,-4.000,3.277,103.699,-174.377,-167.358
-4.000,-4.000,1.607,-124.634,-78.674,-39.185
-2.938,-4.000,3.935,-190.735,-87.463,50.415
-2.050,-3.261,2.000,-373.718,1.343,196.960
-0.799,0.203,0.722,-423.279,93.018,321.777
-0.845,1.728,1.661,-294.312,115.662,296.082
-0.681,0.920,0.535,-89.661,138.672,189.392
-0.598,-0.057,-0.172,-47.241,139.587,119.080
-0.250,-0.157,0.593,24.963,117.920,95.520
0.044,0.417,0.449,38.696,113.892,101.379
0.210,0.238,0.391,102.417,87.646,76.355
0.427,-0.189,0.596,104.797,71.533,75.012
0.561,-0.115,0.515,76.477,66.956,81.848
0.678,-0.136,0.411,44.739,65.674,84.961
0.737,-0.004,0.314,-0.183,68.726,87.219
0.833,0.182,0.207,-25.635,65.735,81.604
0.826,0.280,0.201,-36.804,52.856,66.589
0.802,0.270,0.216,-36.377,36.560,43.579
0.748,0.138,0.394,-7.080,16.968,16.357
0.703,-0.147,0.560,26.184,-2.991,-5.310
0.616,-0.374,0.766,44.922,-20.752,-18.311
0.482,-0.583,0.880,47.607,-32.715,-22.888
0.382,-0.765,0.960,35.583,-35.461,-21.057
0.286,-0.776,1.099,24.231,-29.236,-12.817
0.205,-0.822,1.150,18.311,-16.602,-2.563
0.285,-0.808,1.086,16.968,-1.770,7.507
0.390,-0.862,1.084,19.043,6.409,14.587
0.447,-0.847,1.043,14.648,10.437,18.982
0.454,-0.773,1.061,11.963,9.583,20.020
0.473,-0.740,1.099,13.550,4.883,20.752
0.477,-0.637,1.085,7.996,1.892,22.156
0.490,-0.580,1.059,8.301,-2.991,21.179
0.522,-0.534,1.067,8.911,-5.676,20.020
0.547,-0.523,1.072,13.916,-7.507,17.639
0.591,-0.581,1.051,18.921,-7.507,13.794
0.622,-0.609,1.081,20.935,-6.165,12.085
0.620,-0.626,1.115,22.217,-2.441,10.315
0.583,-0.619,1.126,25.513,3.601,9.338
0.561,-0.627,1.070,29.358,11.169,9.094
0.546,-0.656,1.034,31.189,17.761,9.705
0.520,-0.665,0.992,32.837,21.301,9.766
0.469,-0.647,0.955,32.043,22.705,9.277
0.484,-0.551,0.915,31.250,22.217,7.935
0.504,-0.511,0.845,30.151,20.630,3.235
0.501,-0.580,0.776,30.945,16.968,-6.042
0.507,-0.816,0.885,25.879,12.512,-9.277
0.569,-0.679,0.793,6.958,14.648,-1.770
0.506,-0.898,0.786,14.160,9.338,-1.831
0.501,-0.754,0.774,3.418,3.357,5.615
0.483,-0.685,0.764,-10.559,-0.427,8.545
0.474,-0.667,0.761,-13.123,-8.911,9.888
0.449,-0.633,0.757,-18.433,-13.367,12.573
0.467,-0.580,0.777,-19.165,-18.188,15.137
0.457,-0.508,0.736,-16.724,-21.118,16.418
0.434,-0.484,0.731,-4.944,-26.489,17.212
0.509,-0.508,0.780,-3.723,-26.062,18.921
0.535,-0.511,0.819,1.465,-23.987,18.738
0.452,-0.519,0.785,5.188,-19.531,16.663
0.428,-0.576,0.802,1.770,-12.207,14.771
0.392,-0.578,0.815,-4.822,-6.042,13.428
0.409,-0.552,0.750,-9.949,-2.563,10.864
0.465,-0.526,0.702,-13.367,-0.854,8.667
0.472,-0.505,0.681,-11.353,-1.404,8.972
0.474,-0.501,0.659,-8.362,-3.845,10.071
0.430,-0.477,0.650,-5.310,-6.775,10.986
0.390,-0.486,0.664,-4.639,-10.620,10.864
0.365,-0.476,0.944,-3.540,-12.512,9.766
0.375,-0.481,0.762,1.160,-2.441,7.202
0.365,-0.510,0.660,-6.287,2.380,5.859
0.371,-0.541,0.729,-2.441,3.235,3.906
0.376,-0.541,0.677,-9.949,5.249,3.723
0.380,-0.558,0.665,-12.634,5.554,3.845
0.406,-0.540,0.669,-15.259,7.568,4.639
0.427,-0.514,0.678,-14.465,9.094,5.798
0.431,-0.491,0.675,-12.756,9.644,7.385
0.426,-0.467,0.687,-10.010,9.094,8.911
,,,,,
-0.807,-0.914,1.104,37.659,60.120,32.410
-0.770,-1.049,1.132,39.856,71.716,39.734
-0.770,-1.142,1.168,42.969,80.688,48.645
-0.778,-1.250,1.212,44.189,86.365,57.983
-0.764,-1.306,1.280,47.729,88.379,68.848
-0.735,-1.281,1.321,52.856,86.792,79.712
-0.684,-1.230,1.330,53.711,86.426,89.905
-0.623,-1.221,1.363,58.289,87.830,98.145
-0.576,-1.213,1.377,61.340,92.468,106.140
-0.531,-1.184,1.319,57.922,100.464,114.441
-0.390,-1.180,1.321,56.396,108.643,120.911
-0.208,-1.255,1.358,57.983,112.427,125.427
0.019,-1.329,1.382,52.673,112.549,130.127
0.154,-1.187,1.430,53.833,108.337,132.690
0.330,-1.122,1.607,55.664,101.379,132.324
0.598,-1.094,1.540,29.724,99.609,138.428
0.872,-1.061,1.617,7.507,98.816,147.766
1.008,-0.987,1.649,-14.465,105.164,156.189
1.078,-0.932,1.713,-32.471,118.652,162.659
1.128,-0.767,1.669,-38.330,136.719,167.419
1.100,-0.458,1.536,-32.410,152.344,172.119
1.102,-0.154,1.335,-16.052,163.208,173.462
1.277,0.268,1.205,12.268,171.143,169.556
1.084,0.179,0.950,48.218,176.575,156.372
1.175,0.207,0.667,75.317,183.350,151.611
1.311,0.445,0.309,102.112,199.951,146.912
1.353,0.583,-0.305,56.458,203.308,158.203
1.688,1.622,-0.828,-91.797,221.252,185.364
2.299,3.053,-1.321,-129.700,221.436,174.805
2.748,2.531,-1.490,-82.397,194.824,93.628
2.574,1.701,-1.387,-85.083,161.926,24.109
1.359,1.982,0.679,11.353,69.824,-20.508
0.580,0.536,0.537,-2.258,108.032,-77.454
-0.015,-0.248,-1.168,-139.099,167.053,-100.647
-0.818,0.355,-1.435,-202.698,112.610,-100.403
-1.630,0.920,-0.412,-224.792,17.212,-117.676
-3.299,0.473,1.190,-153.503,-43.762,-178.162
-3.997,-0.912,2.216,-74.463,-33.203,-233.704
-4.000,-1.802,1.405,12.573,23.193,-245.056
-4.000,-3.469,2.198,62.134,32.898,-210.999
-4.000,-3.599,3.587,149.902,9.033,-139.099
-3.395,-3.211,2.418,92.590,34.119,-32.410
-1.718,-3.153,1.808,34.119,58.350,34.241
-0.902,-2.671,2.459,35.400,72.449,80.139
-1.666,-1.925,1.614,-6.348,128.113,103.210
-1.561,-1.090,1.022,-54.626,152.527,140.503
-1.230,-0.465,0.610,-72.571,146.240,173.645
-0.692,-0.060,0.094,-77.209,138.000,188.599
-0.408,0.244,0.107,-66.711,107.971,182.068
-0.228,0.440,-0.290,-47.791,88.989,165.710
0.078,0.541,0.115,-22.034,64.453,144.348
0.439,0.451,0.169,-16.174,53.833,125.793
0.761,0.392,0.365,-24.109,43.457,109.985
0.832,0.356,0.442,-24.475,36.194,92.163
0.812,0.365,0.303,-26.672,36.194,77.393
0.848,0.360,0.362,-22.583,34.363,64.026
0.875,0.267,0.387,-16.357,30.579,49.988
0.893,0.163,0.389,-10.071,24.170,34.241
0.861,0.076,0.392,-0.977,11.963,16.663
0.779,-0.034,0.411,7.324,-4.089,-0.122
0.684,-0.237,0.475,15.869,-18.005,-14.648
0.638,-0.400,0.596,23.926,-29.236,-24.841
0.524,-0.520,0.627,24.780,-36.194,-28.381
0.471,-0.630,0.722,21.301,-38.696,-27.405
0.441,-0.712,0.808,16.296,-36.194,-23.315
0.409,-0.768,0.830,9.155,-29.541,-17.212
0.395,-0.769,0.854,0.671,-21.057,-9.277
0.390,-0.756,0.842,-6.897,-13.428,-1.160
0.422,-0.722,0.848,-12.207,-9.216,6.226
0.465,-0.691,0.848,-15.503,-8.301,12.024
0.466,-0.612,0.791,-17.151,-8.972,14.954
0.480,-0.532,0.810,-18.188,-12.756,14.832
0.495,-0.464,0.814,-18.677,-16.296,13.367
0.505,-0.420,0.795,-16.724,-18.921,10.193
0.512,-0.397,0.863,-7.629,-22.095,5.066
0.511,-0.429,0.871,4.822,-23.499,-0.916
0.531,-0.469,0.905,14.587,-21.973,-5.249
0.556,-0.510,0.941,22.156,-16.479,-8.301
0.568,-0.572,0.979,30.518,-8.240,-9.521
0.533,-0.625,0.928,36.255,-0.366,-8.057
0.537,-0.662,0.963,27.100,6.897,-3.662
0.544,-0.690,0.951,22.278,10.803,-1.038
0.498,-0.690,0.877,15.503,13.611,-0.366
0.527,-0.668,0.865,11.047,12.329,0.732
0.495,-0.678,0.806,14.160,11.108,2.258
0.468,-0.667,0.814,16.418,8.118,2.930
0.462,-0.681,0.795,15.686,6.104,3.906
0.452,-0.716,0.795,17.639,2.686,5.615
0.447,-0.725,0.861,20.386,0.610,9.766
0.441,-0.697,0.873,17.029,0.916,15.076
0.455,-0.629,0.843,10.193,2.258,17.761
0.480,-0.654,0.840,4.700,2.930,16.602
0.508,-0.714,0.857,-0.305,2.686,14.893
0.534,-0.724,0.808,-1.160,0.366,16.479
0.533,-0.585,0.848,-4.211,-4.089,21.912
0.538,-0.513,0.892,-6.287,-7.263,23.315
0.536,-0.490,0.871,-5.493,-8.606,21.118
0.521,-0.470,0.837,2.075,-10.620,16.907
0.516,-0.482,0.819,11.658,-12.268,12.085
0.516,-0.528,0.784,22.156,-12.634,7.935
0.509,-0.538,0.792,30.090,-13.306,5.798
0.500,-0.554,0.782,30.701,-11.780,5.310
0.491,-0.598,0.782,24.902,-8.911,6.958
0.497,-0.601,0.828,18.982,-6.165,9.460
0.503,-0.591,0.834,12.878,-2.319,12.695
0.506,-0.560,0.805,6.042,1.038,15.869
0.483,-0.543,0.803,0.916,1.587,17.090
0.475,-0.512,0.785,-2.136,0.854,16.724
0.465,-0.490,0.734,0.122,-0.366,14.832
0.488,-0.490,0.715,3.418,-2.014,12.756
0.503,-0.496,0.728,6.958,-3.479,11.536
0.509,-0.512,0.694,10.437,-4.395,10.925
0.506,-0.503,0.642,14.587,-4.883,10.315
0.513,-0.503,0.673,16.479,-6.592,11.169
0.518,-0.519,0.731,15.869,-8.057,12.878
0.500,-0.523,0.746,15.198,-8.606,14.832
0.475,-0.535,0.726,12.573,-9.216,16.785
0.463,-0.521,0.698,7.568,-9.155,18.127
0.463,-0.520,0.692,3.418,-9.277,18.127
