aX,aY,aZ,gX,gY,gZ
0.281,-0.770,1.553,62.561,111.145,-15.869
0.383,-0.699,1.544,74.768,113.220,-14.038
0.394,-0.675,1.415,80.750,113.831,-13.000
0.455,-0.846,1.346,94.666,110.474,-13.733
0.483,-0.813,1.317,116.516,99.854,-13.184
0.366,-0.927,1.262,124.573,95.886,-10.315
0.353,-1.095,1.176,119.751,88.684,-3.479
0.347,-1.411,1.225,115.601,82.764,5.920
0.462,-1.410,1.400,104.736,87.463,22.644
0.437,-1.467,1.301,75.989,98.938,43.152
0.401,-1.378,1.140,46.692,103.149,58.411
0.327,-1.399,1.144,31.433,102.417,69.702
0.321,-1.348,1.018,14.954,105.957,81.665
0.243,-1.355,0.941,14.587,104.126,93.933
0.317,-1.473,0.987,40.283,101.929,99.304
0.449,-1.620,0.644,71.045,108.032,103.088
0.325,-1.380,0.529,23.560,101.440,117.920
0.220,-1.609,0.657,19.287,92.041,119.751
0.460,-1.507,0.450,105.530,88.440,106.445
0.539,-1.010,0.702,132.874,62.256,112.976
0.380,-0.687,0.871,69.580,54.199,136.658
0.263,-1.309,0.752,17.517,65.247,141.296
0.250,-1.468,0.499,39.612,91.736,142.212
0.321,-1.580,0.328,71.960,95.154,138.550
0.306,-1.323,0.087,33.447,91.614,153.076
0.302,-1.251,-0.005,16.296,84.717,160.522
0.379,-0.786,0.173,-55.786,90.759,175.110
0.443,-0.422,-0.075,-28.198,88.684,165.710
0.605,-1.121,0.217,122.192,36.255,114.929
0.502,-1.310,0.293,73.547,21.423,130.005
0.366,-1.044,0.522,94.177,20.203,147.400
0.483,-0.924,0.323,96.741,25.452,151.672
0.615,-1.045,0.154,101.135,30.640,144.592
0.666,-1.136,-0.065,114.441,31.433,142.395
0.472,-1.132,-0.078,97.595,19.653,153.809
0.257,-1.112,-0.065,103.149,2.991,164.246
0.225,-0.993,-0.019,93.933,-5.737,169.678
0.342,-0.810,0.001,86.121,-8.179,164.490
0.606,-0.840,-0.054,73.730,-6.165,149.475
0.510,-0.924,-0.098,71.167,-7.812,144.958
0.450,-0.824,-0.105,53.589,-9.216,152.283
0.370,-0.634,-0.038,57.800,-15.381,159.363
0.354,-0.610,-0.046,72.021,-19.104,156.860
0.355,-0.727,-0.059,90.393,-19.470,146.973
0.380,-0.794,-0.144,100.464,-21.729,140.686
0.441,-0.672,-0.117,79.285,-25.879,141.418
0.467,-0.554,-0.133,67.139,-30.457,138.428
0.495,-0.621,-0.084,73.425,-38.025,133.911
0.348,-0.742,-0.136,80.811,-51.941,132.996
0.271,-0.664,-0.135,58.533,-52.673,139.771
0.267,-0.454,-0.207,25.452,-46.570,142.883
0.494,-0.372,-0.185,31.616,-50.537,137.329
0.347,-0.343,-0.210,42.175,-62.988,128.662
0.394,-0.273,-0.093,41.443,-74.585,123.291
0.355,-0.254,-0.097,58.411,-85.144,121.338
0.384,-0.077,0.034,35.706,-95.459,124.146
0.412,0.095,0.146,26.733,-98.694,118.103
0.425,0.175,0.230,39.978,-99.854,105.530
0.413,0.065,0.292,66.406,-95.642,92.224
0.357,-0.126,0.288,86.182,-88.867,81.055
0.319,-0.214,0.264,80.994,-77.148,77.332
0.271,-0.185,0.226,67.322,-64.880,79.834
0.266,-0.144,0.112,55.237,-56.580,82.092
0.256,-0.144,-0.006,55.420,-51.758,81.787
0.230,-0.106,-0.143,54.993,-52.795,82.458
0.199,-0.084,-0.211,49.683,-59.387,82.336
0.186,-0.191,-0.276,57.251,-70.068,77.759
0.177,-0.280,-0.271,60.608,-84.045,74.890
0.187,-0.230,-0.231,50.415,-96.191,75.867
0.162,-0.243,-0.199,41.870,-104.065,75.317
0.083,-0.335,-0.213,41.199,-107.971,73.853
0.078,-0.302,-0.228,29.907,-110.901,76.843
0.090,-0.150,-0.206,14.038,-115.479,81.726
0.098,-0.041,-0.173,10.864,-122.925,81.543
0.080,-0.026,-0.153,15.076,-130.615,76.355
0.054,0.003,-0.140,18.188,-138.184,70.923
0.010,0.052,-0.120,16.785,-145.447,65.674
-0.020,0.006,-0.111,19.592,-152.649,59.509
0.019,0.018,-0.089,21.606,-162.109,55.481
-0.009,0.127,-0.041,13.550,-171.692,55.420
-0.072,0.073,0.019,16.418,-178.162,52.979
-0.045,0.032,0.073,23.254,-183.472,50.781
0.016,0.068,0.107,15.869,-185.730,52.063
0.031,0.094,0.142,13.306,-187.561,52.002
0.014,0.135,0.201,8.728,-193.665,50.476
0.009,0.210,0.327,3.113,-203.552,48.157
0.013,0.243,0.507,-0.732,-215.393,43.823
0.004,0.189,0.748,-1.343,-225.281,40.161
0.026,0.219,0.977,2.258,-225.037,40.222
0.129,0.319,1.157,1.648,-212.830,42.786
0.095,0.276,1.333,13.672,-202.271,41.199
-0.227,0.201,1.615,13.428,-208.313,38.330
-0.219,0.222,2.061,-26.794,-229.980,44.128
-0.491,0.782,2.786,-88.806,-258.362,57.312
-0.672,1.145,3.865,-113.342,-273.804,49.744
-0.514,1.066,4.000,-48.096,-238.647,25.085
-0.182,0.696,4.000,-28.076,-108.948,2.808
0.086,0.587,3.207,-28.015,75.867,-0.732
0.367,0.437,1.759,-3.052,209.717,0.793
0.758,0.005,0.150,80.505,254.395,0.793
0.902,-0.153,-0.681,54.077,234.375,11.597
0.933,0.187,-1.298,19.470,147.034,15.381
0.698,0.162,-0.828,4.944,7.446,-7.629
0.412,-0.022,0.356,-27.527,-130.981,-31.067
0.247,0.171,1.917,-87.708,-215.820,-32.471
0.175,0.418,3.013,-104.980,-213.501,-24.719
0.220,0.608,3.401,-86.731,-123.291,-22.034
0.252,0.502,2.756,-33.691,9.399,-26.733
0.280,0.271,1.691,14.282,119.324,-28.137
0.373,0.251,0.702,31.311,164.734,-16.907
0.425,0.209,0.166,33.691,143.677,-7.263
0.465,0.025,0.028,49.072,84.839,-5.371
0.469,-0.183,0.243,56.946,20.569,-1.892
0.469,-0.105,0.724,33.264,-21.179,4.517
0.467,-0.104,1.090,27.588,-31.921,5.981
0.453,0.006,1.197,12.390,-13.916,5.493
0.409,0.072,1.052,7.202,14.221,3.967
0.349,0.083,0.836,3.906,28.870,2.686
0.313,0.151,0.811,-2.441,23.315,1.770
,,,,,
-0.047,-1.363,1.202,93.445,88.623,16.296
-0.044,-1.384,1.094,80.505,100.464,24.109
-0.043,-1.305,1.055,69.519,108.154,33.142
-0.027,-1.444,0.961,67.566,110.046,40.894
0.017,-1.422,0.936,67.200,109.863,51.697
0.043,-1.444,1.028,69.092,106.689,60.974
0.052,-1.454,1.064,67.139,108.337,69.580
0.066,-1.474,1.061,61.523,113.586,76.843
0.092,-1.491,1.016,54.871,119.873,84.717
0.107,-1.435,0.971,46.875,123.962,94.055
0.117,-1.373,0.935,40.588,127.319,101.440
0.106,-1.368,0.885,38.879,130.371,107.178
0.126,-1.359,0.810,32.104,132.324,114.136
0.157,-1.334,0.775,29.053,136.169,118.164
0.177,-1.335,0.690,36.255,141.052,118.225
0.163,-1.362,0.621,33.630,141.418,118.652
0.154,-1.349,0.601,30.273,135.681,120.239
0.060,-1.467,0.585,33.020,129.761,122.498
0.176,-1.409,0.541,39.856,125.793,127.869
0.250,-1.294,0.536,49.988,122.253,130.615
0.158,-1.297,0.498,64.453,117.188,130.920
0.159,-1.303,0.397,67.200,112.610,132.996
0.200,-1.379,0.374,78.064,105.469,137.451
0.187,-1.384,0.296,86.975,101.074,143.555
0.265,-1.333,0.279,84.106,99.121,149.780
0.263,-1.254,0.298,86.792,91.919,155.273
0.207,-1.312,0.316,101.624,84.229,154.419
0.248,-1.347,0.308,105.713,84.229,155.701
0.270,-1.417,0.353,118.164,84.534,155.579
0.336,-1.607,-0.007,115.906,86.060,157.593
0.258,-1.484,-0.095,78.430,104.004,167.786
0.313,-1.310,-0.112,121.338,76.782,171.997
0.458,-1.051,-0.177,218.445,23.743,166.260
0.576,-1.058,-0.016,219.971,-8.911,160.400
0.574,-0.972,0.061,170.593,-9.033,166.809
0.416,-1.043,0.041,130.798,-0.244,173.950
0.426,-1.281,-0.009,93.872,14.648,170.288
0.442,-1.284,-0.120,53.345,36.926,172.974
0.564,-1.287,-0.270,71.228,52.002,164.795
0.632,-1.121,-0.451,111.328,49.377,156.433
0.770,-0.965,-0.565,115.845,38.208,152.405
0.770,-0.699,-0.568,86.792,23.560,152.527
0.609,-0.640,-0.540,63.171,9.216,146.729
0.537,-0.990,-0.709,70.068,1.648,131.470
0.518,-0.958,-0.858,62.012,-0.854,138.855
0.241,-0.823,-0.839,17.761,-12.451,158.142
-0.196,-0.984,-0.968,7.751,-25.635,159.363
0.037,-1.054,-1.014,13.489,-33.569,143.127
0.231,-1.291,-1.217,73.181,-33.569,122.620
0.304,-1.100,-0.952,58.838,-75.928,127.991
0.111,-0.901,-0.714,-24.231,-114.990,148.437
0.239,-0.636,-0.547,-56.213,-109.131,158.813
0.389,-0.614,-0.469,-73.486,-111.389,157.410
0.185,-0.716,-0.508,-69.641,-119.019,154.541
0.098,-0.553,-0.530,-93.811,-104.126,160.034
0.171,-0.115,-0.448,-82.520,-105.835,162.048
0.082,-0.014,-0.397,-19.836,-121.704,150.574
0.065,-0.334,-0.395,36.743,-130.310,130.188
-0.033,-0.652,-0.501,86.243,-137.512,117.859
-0.056,-0.755,-0.383,52.795,-148.132,124.756
-0.045,-0.479,-0.306,-10.864,-149.475,142.029
-0.030,-0.104,-0.153,-55.237,-143.005,152.832
0.027,0.115,-0.054,-68.787,-137.939,147.522
0.064,0.184,-0.042,-27.405,-137.939,131.104
0.159,0.125,0.003,3.540,-139.465,115.784
0.143,0.109,0.108,1.709,-138.611,108.887
0.062,0.180,0.216,3.479,-136.230,105.469
-0.041,0.234,0.269,1.953,-127.625,103.088
-0.089,0.236,0.255,5.432,-115.173,98.633
-0.076,0.183,0.170,16.479,-101.135,95.581
-0.049,0.137,0.061,21.362,-92.407,96.802
-0.048,0.177,0.007,17.273,-89.600,101.135
-0.009,0.293,-0.006,7.935,-90.149,103.638
0.042,0.349,0.006,9.766,-92.590,99.731
0.024,0.265,-0.023,28.809,-95.093,90.027
-0.017,0.097,-0.095,47.485,-95.093,81.726
-0.069,-0.085,-0.234,58.899,-92.407,79.529
-0.148,-0.181,-0.388,59.570,-88.257,83.862
-0.214,-0.143,-0.532,45.410,-85.938,91.858
-0.309,-0.116,-0.652,35.950,-87.524,97.229
-0.396,-0.083,-0.713,37.537,-97.839,98.206
-0.397,0.077,-0.728,39.978,-117.310,97.168
-0.342,0.180,-0.707,37.964,-138.000,92.285
-0.330,0.094,-0.619,49.622,-161.011,82.031
-0.349,-0.089,-0.560,68.176,-182.617,71.350
-0.375,-0.237,-0.535,70.801,-190.979,69.031
-0.364,-0.394,-0.636,69.885,-189.026,73.792
-0.260,-0.504,-0.815,75.745,-182.861,82.581
-0.192,-0.440,-0.995,74.768,-178.223,94.910
-0.192,-0.066,-0.894,56.519,-200.745,106.018
-0.422,0.514,-0.394,19.104,-272.034,106.018
-0.814,1.106,0.425,-3.540,-372.375,93.384
-1.168,1.691,1.674,-26.062,-480.225,80.872
-1.758,1.839,3.679,30.334,-609.619,63.049
-2.449,1.570,4.000,87.219,-757.568,51.575
-1.567,2.631,4.000,36.682,-648.010,70.679
-1.590,2.067,4.000,85.266,9.399,22.156
-1.059,0.951,3.388,107.788,353.699,-44.373
-0.193,0.525,2.080,88.623,330.994,-47.058
0.367,-0.309,1.412,106.812,271.545,-59.265
0.805,-1.202,1.031,105.164,247.314,-70.313
1.170,-1.531,0.501,118.713,238.403,-47.180
1.324,-1.145,-0.051,49.133,241.089,1.648
1.369,-0.600,-0.477,-13.245,219.116,26.855
1.125,0.066,-0.638,-41.199,152.161,28.564
1.156,0.403,-0.404,-76.904,62.195,19.104
1.090,0.458,0.169,-61.157,-31.311,7.324
1.048,0.647,0.963,-68.420,-112.793,3.113
0.748,0.777,1.922,-116.760,-143.311,-9.583
0.337,0.711,2.790,-126.038,-127.258,-30.518
0.323,0.517,3.216,-48.950,-68.726,-41.992
0.401,0.527,2.793,-20.142,37.476,-37.292
0.677,0.695,1.869,-1.892,133.850,-31.494
0.563,0.702,1.040,17.456,173.096,-39.185
0.364,0.422,0.644,19.958,161.804,-55.725
0.334,0.182,0.473,17.578,127.380,-57.678
0.469,0.190,0.524,4.883,90.393,-45.532
0.668,0.259,0.657,-4.883,64.148,-38.147
0.623,0.195,0.791,7.629,49.438,-38.513
,,,,,
0.156,-1.349,1.357,62.988,64.758,16.724
0.257,-1.384,1.393,60.181,86.060,25.940
0.186,-1.361,1.421,51.086,109.741,38.025
0.294,-1.277,1.257,47.363,133.423,50.537
0.354,-1.282,1.166,52.185,148.682,54.260
0.172,-1.736,1.044,64.880,158.203,52.734
0.145,-0.955,1.137,72.266,159.912,65.796
0.131,-1.305,1.038,88.562,150.818,64.026
0.139,-1.654,1.008,94.177,145.874,59.021
0.312,-1.666,0.941,84.595,147.217,70.068
0.466,-1.518,0.790,90.271,149.109,80.566
0.458,-1.499,0.656,92.773,146.606,88.257
0.443,-1.703,0.662,84.778,138.306,94.055
0.355,-1.887,0.768,83.435,128.174,105.347
0.260,-1.730,0.819,68.237,123.291,123.535
0.187,-1.646,0.801,67.017,126.282,134.949
0.258,-1.581,0.743,79.834,130.981,140.259
0.152,-1.823,0.547,90.393,133.789,143.799
0.127,-2.083,0.437,99.792,147.705,149.048
0.163,-1.267,0.264,123.352,138.000,176.147
0.344,-0.880,0.120,136.841,89.233,180.359
0.439,-1.530,0.343,144.775,74.829,157.837
0.326,-1.707,0.559,84.534,76.660,158.447
0.223,-1.516,0.471,100.098,84.534,168.213
0.212,-1.333,0.235,87.097,99.304,171.387
0.303,-1.431,-0.134,80.750,104.553,169.128
0.293,-1.460,-0.215,89.722,89.905,171.387
0.263,-1.365,-0.271,101.929,68.970,177.917
0.328,-1.244,-0.150,119.629,49.438,180.725
0.425,-1.223,-0.034,143.799,37.415,178.955
0.464,-1.254,-0.146,135.437,34.668,179.199
0.458,-1.332,-0.318,121.704,30.334,179.565
0.417,-1.406,-0.337,126.831,17.944,178.467
0.432,-1.378,-0.330,119.995,8.972,182.556
0.383,-1.209,-0.321,106.445,2.197,192.749
0.458,-1.079,-0.311,111.389,-1.099,196.045
0.575,-0.905,-0.381,130.554,3.906,194.031
0.641,-0.677,-0.358,147.583,7.629,189.148
0.578,-0.623,-0.587,168.152,9.644,173.157
0.589,-0.532,-0.612,137.878,15.015,158.997
0.489,-0.544,-0.806,109.741,20.508,149.048
0.408,-0.610,-0.832,134.399,11.536,135.742
0.371,-0.790,-1.028,143.982,0.366,125.854
0.285,-0.955,-1.008,120.361,-17.395,129.272
0.165,-1.053,-1.047,87.402,-47.241,141.602
0.390,-0.848,-0.980,43.457,-73.425,145.264
0.712,-0.340,-0.952,48.279,-88.318,135.925
0.456,-0.386,-0.867,24.292,-110.596,122.437
0.255,-0.789,-0.750,-23.254,-112.610,105.286
0.097,-0.761,-0.728,-37.415,-126.526,108.887
0.007,-0.260,-0.692,-59.387,-146.729,120.422
-0.056,-0.539,-0.958,-62.378,-144.836,121.155
-0.164,-0.589,-0.936,-95.459,-142.639,131.470
-0.073,-0.266,-0.922,-129.211,-156.494,139.526
0.020,-0.012,-0.744,-107.971,-152.344,136.658
-0.241,-0.245,-0.769,-150.391,-155.579,126.709
-0.350,-0.176,-0.101,-41.443,-184.753,110.779
-0.137,-0.332,-0.224,65.430,-217.712,94.177
0.017,-0.602,0.022,56.885,-203.613,93.933
-0.056,-0.761,-0.022,37.415,-181.763,99.365
-0.213,-0.576,0.040,-24.109,-158.569,117.188
-0.197,-0.260,-0.118,-49.744,-127.319,130.798
-0.245,-0.191,-0.353,-56.946,-105.652,133.911
-0.289,-0.200,-0.631,-41.504,-94.788,130.432
-0.248,-0.026,-0.854,-15.320,-101.379,128.479
-0.257,0.081,-0.928,3.174,-123.962,126.526
-0.280,-0.036,-0.888,37.903,-159.973,119.324
-0.302,-0.210,-0.752,68.665,-195.312,113.342
-0.348,-0.349,-0.594,79.956,-223.694,114.136
-0.307,-0.318,-0.387,74.402,-241.516,119.751
-0.301,-0.175,-0.172,62.805,-250.427,124.756
-0.356,-0.229,-0.052,51.270,-248.413,125.793
-0.382,-0.345,-0.045,53.162,-236.633,125.122
-0.359,-0.366,-0.142,43.579,-220.154,129.822
-0.408,-0.480,-0.300,40.771,-206.543,135.986
-0.483,-0.644,-0.526,51.208,-199.036,143.494
-0.497,-0.496,-0.692,51.697,-203.064,157.349
-0.463,-0.040,-0.707,55.908,-221.863,168.884
-0.537,0.269,-0.577,80.933,-258.362,164.368
-0.617,0.396,-0.257,115.784,-315.552,147.583
-0.896,0.273,0.297,141.785,-390.015,127.136
-1.279,0.036,1.036,137.085,-467.407,110.352
-1.590,0.106,1.849,94.055,-523.499,101.746
-2.068,0.513,3.019,-38.696,-562.805,113.586
-2.158,2.251,4.000,-238.281,-583.557,155.273
-1.914,3.357,4.000,-252.136,-526.917,148.132
-1.503,2.727,4.000,-164.551,-310.242,68.665
-1.341,2.159,4.000,-38.574,31.311,4.028
-0.848,1.571,2.552,28.687,210.571,-16.296
-0.413,0.980,1.437,52.185,242.615,-19.592
0.058,0.667,0.766,51.453,234.070,-13.489
0.330,0.591,0.334,31.250,202.759,-10.193
0.314,0.531,0.099,18.188,158.386,-17.151
0.372,0.593,0.108,-3.967,97.534,-30.273
0.314,0.870,0.413,-11.841,20.874,-33.997
0.183,0.919,1.070,-23.132,-44.250,-49.011
0.078,0.751,1.956,-28.931,-87.036,-66.711
0.061,0.775,2.651,-63.965,-79.712,-68.970
0.048,0.875,2.930,-41.809,-17.639,-65.857
0.022,0.624,2.577,19.592,73.853,-71.899
0.001,0.525,1.921,68.665,150.818,-70.740
0.001,0.557,1.312,81.299,187.439,-64.636
0.051,0.453,0.998,75.134,179.810,-64.148
0.110,0.364,0.950,63.660,149.841,-63.049
0.142,0.456,1.163,41.626,120.972,-60.364
0.181,0.607,1.429,25.818,109.619,-60.791
0.207,0.516,1.527,28.931,120.789,-68.237
0.229,0.334,1.344,41.931,150.085,-75.317
0.242,0.260,0.992,48.279,180.725,-78.064
0.274,0.215,0.655,42.236,202.271,-79.834
0.322,0.080,0.380,32.898,210.510,-81.421
0.365,0.079,0.164,26.001,207.642,-78.918
0.407,0.173,0.047,16.357,195.740,-75.684
0.428,0.106,-0.049,12.512,178.894,-80.261
0.436,-0.058,-0.093,16.602,160.278,-85.815
0.455,-0.105,-0.101,12.024,142.944,-85.510
0.469,-0.031,-0.056,4.150,126.770,-82.825
0.492,-0.038,-0.024,3.479,113.098,-83.191
0.544,-0.125,-0.006,7.690,103.210,-84.717
,,,,,
0.441,-1.035,-0.989,-38.208,-4.333,135.559
0.393,-0.896,-0.902,-13.062,-26.855,139.465
0.314,-1.046,-0.868,-12.573,-66.284,130.127
0.279,-0.874,-0.793,-21.240,-76.965,133.118
0.424,-0.734,-0.691,-6.775,-97.046,131.592
0.476,-0.633,-0.529,-6.836,-113.037,128.418
0.535,-0.765,-0.488,28.015,-116.089,116.638
0.518,-0.821,-0.489,28.870,-117.798,117.554
0.388,-0.840,-0.428,-3.540,-117.126,131.897
0.409,-0.567,-0.471,-19.897,-109.009,143.921
0.370,-0.404,-0.545,-15.076,-98.083,143.250
0.407,-0.437,-0.694,6.104,-93.933,129.883
0.445,-0.651,-0.751,29.053,-99.670,115.479
0.418,-0.773,-0.766,40.405,-118.591,112.549
0.325,-0.675,-0.621,27.344,-137.756,120.422
0.282,-0.567,-0.490,14.282,-147.156,123.840
0.268,-0.479,-0.352,11.475,-148.682,121.277
0.318,-0.389,-0.290,2.502,-141.296,116.272
0.362,-0.332,-0.232,2.197,-132.324,109.314
0.348,-0.345,-0.251,12.939,-125.488,103.577
0.354,-0.349,-0.252,26.245,-121.887,101.318
0.327,-0.401,-0.296,35.034,-121.704,100.830
0.324,-0.418,-0.312,34.851,-122.253,101.501
0.319,-0.354,-0.325,25.879,-123.413,103.271
0.304,-0.260,-0.279,15.503,-126.892,102.844
0.269,-0.213,-0.229,14.465,-131.042,98.877
0.231,-0.216,-0.161,17.761,-132.996,93.384
0.195,-0.184,-0.114,16.602,-131.287,90.332
0.212,-0.087,-0.110,8.606,-127.747,89.722
0.214,0.013,-0.110,9.399,-123.474,87.708
0.212,0.029,-0.159,21.057,-122.437,83.923
0.194,-0.039,-0.224,34.302,-125.000,79.102
0.159,-0.145,-0.308,44.250,-130.066,75.256
0.093,-0.241,-0.366,44.067,-138.245,74.280
0.071,-0.228,-0.386,36.255,-148.132,76.538
0.081,-0.132,-0.343,21.301,-158.752,79.590
0.036,-0.197,-0.321,17.944,-166.199,79.590
0.017,-0.262,-0.294,21.545,-169.678,80.200
0.097,-0.048,-0.259,8.545,-173.828,85.388
0.133,0.136,-0.216,3.906,-179.932,86.365
0.088,0.060,-0.175,17.090,-187.012,77.881
0.049,0.034,-0.105,20.386,-196.838,70.862
0.012,0.055,-0.002,18.188,-204.102,67.566
-0.020,0.019,0.091,21.057,-207.642,64.819
-0.010,0.043,0.180,20.569,-209.106,64.880
0.008,0.098,0.235,15.930,-206.726,67.200
-0.005,0.038,0.240,23.499,-200.195,67.200
0.000,-0.047,0.217,27.649,-192.749,67.932
0.030,0.029,0.155,21.057,-189.880,72.693
0.046,0.035,0.150,21.729,-190.186,74.219
-0.085,-0.120,0.131,26.733,-194.458,72.937
0.051,-0.226,0.044,23.926,-195.496,79.895
0.050,0.046,0.066,13.123,-200.439,94.543
-0.024,0.103,0.115,16.541,-210.327,95.703
-0.049,-0.111,0.189,30.579,-218.994,88.013
-0.062,-0.049,0.302,24.231,-232.666,87.769
-0.276,0.157,0.559,6.714,-259.155,88.867
-0.501,0.280,0.958,-0.122,-294.067,82.336
-0.832,0.496,1.515,-11.597,-335.510,73.059
-1.162,0.675,2.285,-39.551,-378.601,64.026
-1.533,0.857,3.514,-108.093,-417.847,65.002
-1.698,1.646,4.000,-151.611,-425.964,80.200
-1.570,2.098,4.000,-114.197,-348.877,65.247
-1.408,1.547,4.000,-41.504,-132.141,15.869
-1.140,1.209,3.918,22.766,115.479,-20.081
-0.733,1.101,2.458,48.157,231.628,-28.625
-0.331,0.646,1.576,48.828,256.897,-35.461
0.094,0.378,0.973,41.870,252.502,-36.865
0.407,0.288,0.494,24.414,243.713,-34.241
0.681,0.171,0.038,6.836,234.192,-36.926
0.792,0.020,-0.330,4.089,208.252,-41.992
0.772,0.113,-0.557,6.836,158.813,-40.039
0.645,0.180,-0.438,0.122,85.999,-39.063
0.550,-0.002,-0.019,16.785,7.202,-45.288
0.385,0.129,0.681,25.085,-62.500,-39.490
0.263,0.244,1.495,7.202,-101.257,-40.527
0.177,0.100,2.197,-5.615,-103.088,-45.105
0.069,0.272,2.633,-17.090,-63.232,-36.316
0.028,0.462,2.636,-10.864,10.925,-33.203
-0.010,0.324,2.168,13.489,90.576,-42.175
-0.025,0.234,1.586,40.771,142.761,-42.114
0.042,0.251,1.169,28.992,163.452,-36.560
0.096,0.216,0.916,18.433,160.889,-35.706
0.168,0.209,0.793,17.151,147.522,-36.133
0.229,0.201,0.731,18.555,132.446,-36.926
0.277,0.177,0.715,20.996,120.850,-39.063
0.302,0.220,0.718,18.677,113.708,-40.955
0.327,0.197,0.734,15.259,113.220,-45.471
0.333,0.143,0.714,12.573,117.554,-50.171
0.347,0.169,0.692,7.385,123.840,-51.697
0.360,0.187,0.649,5.859,130.554,-54.199
0.369,0.067,0.545,8.606,139.160,-58.167
0.380,0.024,0.420,8.789,145.386,-56.885
0.391,0.065,0.331,9.766,148.315,-52.551
0.425,-0.003,0.219,14.160,146.301,-51.208
0.438,-0.081,0.150,20.081,140.686,-50.537
0.496,-0.074,0.106,16.968,131.165,-48.340
0.526,-0.087,0.105,15.564,118.530,-48.218
0.561,-0.158,0.115,14.709,103.821,-51.453
0.571,-0.214,0.199,3.296,88.623,-54.199
0.577,-0.238,0.313,-14.893,76.843,-56.763
0.575,-0.241,0.427,-36.804,72.327,-59.509
0.553,-0.182,0.493,-57.800,76.599,-60.242
0.521,-0.073,0.507,-72.083,86.060,-59.326
0.523,0.023,0.479,-72.510,96.680,-59.143
0.541,0.080,0.397,-60.547,105.591,-58.228
0.614,0.091,0.294,-41.748,110.107,-57.190
0.613,0.071,0.199,-21.606,109.436,-58.044
0.644,0.057,0.124,-6.409,101.135,-57.922
0.628,-0.055,0.083,7.996,87.708,-60.913
0.632,-0.194,0.078,13.428,71.716,-62.622
0.693,-0.203,0.134,10.803,55.542,-61.218
0.662,-0.232,0.226,1.892,44.312,-61.768
0.608,-0.323,0.321,-13.489,38.574,-64.453
0.601,-0.369,0.391,-32.410,39.734,-64.941
0.620,-0.275,0.427,-55.664,48.279,-61.768
0.640,-0.149,0.396,-73.547,58.838,-59.204
0.646,-0.027,0.339,-80.811,68.665,-59.021
0.657,0.119,0.287,-76.416,74.097,-60.425
,,,,,
0.442,-1.450,-0.362,90.698,4.517,156.311
0.512,-0.859,-0.601,22.705,-7.324,180.481
0.516,-0.625,-0.581,-54.199,10.071,173.401
0.376,-0.994,-0.583,-9.888,6.592,149.475
0.450,-1.235,-0.710,36.987,-23.071,136.475
0.474,-1.099,-0.560,30.701,-49.561,144.958
0.486,-0.776,-0.415,12.451,-57.556,151.917
0.456,-0.712,-0.340,0.488,-57.800,147.705
0.400,-0.825,-0.307,2.258,-53.467,140.198
0.379,-0.867,-0.289,8.240,-51.575,137.573
0.396,-0.790,-0.291,-12.390,-47.241,140.686
0.447,-0.576,-0.306,-24.597,-41.687,143.738
0.412,-0.518,-0.338,-24.841,-38.208,138.916
0.500,-0.748,-0.440,-28.809,-36.926,129.883
0.366,-0.543,-0.492,-45.044,-34.729,133.606
0.161,-0.649,-0.445,-74.768,-22.400,128.967
0.268,-0.595,-0.414,-23.437,-41.260,128.479
0.382,-0.367,-0.431,14.893,-60.547,129.944
0.219,-0.488,-0.351,9.460,-74.585,130.432
0.090,-0.569,-0.299,13.306,-81.177,132.874
0.207,-0.454,-0.273,13.062,-80.261,137.756
0.171,-0.442,-0.321,3.723,-72.693,140.686
0.176,-0.376,-0.392,2.258,-69.397,140.076
0.186,-0.376,-0.505,4.028,-70.801,137.146
0.131,-0.397,-0.578,1.099,-78.186,135.742
0.051,-0.379,-0.637,-0.183,-88.501,135.254
0.003,-0.211,-0.611,-3.357,-102.905,137.329
-0.004,-0.040,-0.547,-2.563,-116.760,135.437
0.011,-0.002,-0.463,10.437,-128.784,127.808
0.021,-0.059,-0.407,29.297,-140.381,119.507
0.016,-0.130,-0.353,42.969,-152.405,114.685
-0.016,-0.150,-0.271,49.133,-160.767,114.441
-0.105,-0.186,-0.300,46.936,-162.292,115.662
-0.103,-0.138,-0.314,37.537,-158.081,117.981
-0.102,-0.208,-0.460,48.950,-155.579,117.737
-0.133,-0.395,-0.578,48.706,-159.729,120.056
-0.124,-0.353,-0.641,33.997,-166.931,128.479
-0.173,-0.178,-0.667,10.925,-174.622,136.963
-0.225,-0.033,-0.701,5.066,-184.021,137.024
-0.247,0.025,-0.747,17.090,-197.693,129.944
-0.364,-0.040,-0.812,26.550,-215.027,122.559
-0.442,-0.049,-0.818,29.053,-235.474,119.141
-0.467,0.052,-0.763,35.706,-256.042,119.019
-0.517,0.214,-0.616,40.222,-275.085,118.652
-0.582,0.312,-0.503,47.974,-292.786,115.051
-0.715,0.359,-0.370,62.073,-310.913,108.337
-0.692,0.347,-0.147,66.345,-331.299,104.370
-0.759,0.251,-0.021,78.064,-351.868,103.394
-0.972,0.358,0.262,68.481,-376.892,102.112
-1.203,0.643,0.772,43.396,-411.255,96.436
-1.571,0.841,1.432,21.851,-453.064,85.205
-1.970,0.958,2.227,10.864,-496.338,71.899
-2.216,0.868,3.401,-16.663,-535.156,63.660
-2.371,1.511,4.000,-117.493,-546.387,79.529
-1.969,2.142,4.000,-120.239,-461.487,82.092
-1.734,1.689,4.000,-54.932,-221.313,42.175
-1.494,1.086,4.000,27.588,59.692,2.869
-1.121,0.860,2.667,53.650,186.096,-0.488
-0.568,0.340,1.775,57.434,216.248,-3.723
0.000,0.143,1.100,49.438,217.773,6.714
0.303,-0.001,0.571,29.846,211.243,8.972
0.418,-0.112,0.099,10.315,196.899,10.071
0.564,0.167,-0.170,-28.992,155.212,17.517
0.434,0.617,-0.153,-41.504,89.722,10.620
0.183,0.839,0.238,-25.146,3.784,-7.629
0.005,0.796,1.011,-8.423,-74.707,-29.358
-0.052,0.536,1.820,4.517,-122.314,-44.373
-0.206,0.563,2.671,-23.743,-125.549,-37.170
-0.230,0.727,3.144,-26.245,-65.735,-25.330
-0.208,0.702,2.837,24.963,34.668,-25.085
-0.233,0.560,2.110,57.434,128.784,-30.029
-0.201,0.394,1.367,63.110,179.199,-34.790
-0.070,0.459,0.945,41.138,182.312,-31.982
-0.022,0.536,0.763,22.766,156.128,-35.461
0.001,0.501,0.777,27.344,120.728,-44.617
0.017,0.348,0.970,32.349,91.675,-54.138
0.071,0.261,1.191,26.855,80.139,-59.326
0.075,0.249,1.308,29.175,87.708,-60.852
0.058,0.287,1.285,28.259,110.779,-59.143
0.080,0.245,1.104,32.898,134.338,-56.519
0.106,0.207,0.919,39.185,151.123,-54.199
0.122,0.225,0.751,42.419,157.349,-51.208
0.149,0.200,0.651,43.457,154.724,-50.964
0.179,0.144,0.568,41.626,146.912,-53.223
0.203,0.117,0.543,36.194,136.475,-55.908
0.230,0.110,0.552,28.259,127.441,-58.350
0.251,0.109,0.583,22.339,122.864,-60.059
0.283,0.121,0.574,19.958,123.230,-61.218
0.311,0.071,0.536,20.630,127.380,-61.829
0.324,0.050,0.485,23.193,131.775,-60.547
0.334,0.057,0.424,25.574,134.277,-57.922
0.367,0.056,0.365,29.541,135.193,-56.458
0.397,0.002,0.298,34.180,133.301,-56.946
0.432,-0.067,0.246,35.583,127.869,-57.068
0.444,-0.142,0.214,36.072,119.812,-57.129
0.454,-0.162,0.216,32.043,109.802,-56.213
0.480,-0.183,0.237,25.879,99.854,-56.335
0.507,-0.263,0.266,18.982,91.980,-57.434
0.508,-0.304,0.296,11.658,87.830,-55.420
0.500,-0.273,0.328,2.930,86.426,-50.415
0.510,-0.252,0.354,-4.700,87.097,-46.448
0.553,-0.111,0.369,-8.423,90.088,-41.931
0.543,-0.101,0.363,-3.540,92.163,-39.795
0.568,-0.141,0.343,5.188,91.309,-39.001
0.616,-0.101,0.328,10.620,88.501,-37.048
0.639,-0.104,0.312,16.968,84.351,-36.926
0.642,-0.111,0.308,22.400,78.552,-38.086
0.683,-0.143,0.300,23.682,71.777,-39.307
0.629,-0.204,0.325,24.170,66.345,-42.236
0.594,-0.249,0.360,15.808,59.875,-42.969
0.594,-0.281,0.438,5.432,53.772,-44.006
0.596,-0.348,0.498,-11.780,52.551,-44.800
0.559,-0.354,0.522,-28.625,57.373,-43.701
0.569,-0.169,0.519,-46.082,66.589,-38.513
0.723,-0.010,0.438,-49.011,77.576,-36.682
0.833,0.138,0.387,-47.241,86.853,-37.903
0.778,0.085,0.312,-31.250,87.891,-43.884
0.807,0.011,0.217,-1.221,82.520,-48.706
0.805,-0.010,0.155,20.508,74.951,-51.575
,,,,,
0.427,-1.638,0.579,85.876,81.116,157.959
0.466,-1.658,0.613,88.989,77.515,166.992
0.434,-1.684,0.645,86.914,76.904,176.636
0.361,-1.616,0.533,75.867,78.125,187.317
0.229,-1.669,0.297,61.951,83.069,196.899
0.166,-1.249,0.183,61.462,83.862,205.017
0.278,-1.189,0.048,57.434,70.068,206.604
0.313,-1.212,0.015,69.946,59.937,199.158
0.348,-1.347,-0.046,84.534,54.199,193.237
0.406,-1.389,0.079,95.642,42.175,193.298
0.427,-1.482,0.167,124.329,28.992,196.228
0.481,-1.664,0.168,178.223,24.048,199.707
0.667,-1.093,0.078,242.615,21.790,205.444
0.926,-0.194,-0.002,223.572,-3.784,211.121
0.774,-0.241,0.263,105.103,-9.277,188.354
0.523,-1.293,0.140,99.915,-0.427,142.395
0.482,-2.000,0.027,153.320,19.897,127.686
0.570,-1.622,-0.211,116.089,40.649,155.823
0.487,-0.995,-0.251,40.222,40.527,180.725
0.469,-0.820,-0.407,-2.319,46.021,172.668
0.589,-1.017,-0.642,30.029,50.781,147.156
0.649,-1.142,-0.888,3.662,54.871,134.827
0.576,-0.754,-0.801,-73.547,44.006,142.090
0.344,-0.551,-0.773,-41.443,1.953,131.775
0.376,-0.831,-0.774,25.940,-33.875,106.934
0.359,-1.071,-0.666,66.467,-48.279,97.412
0.307,-1.149,-0.536,51.636,-57.678,108.215
0.255,-1.094,-0.404,37.537,-56.763,121.460
0.357,-0.705,-0.423,2.991,-46.509,132.446
0.191,-1.112,-0.465,-65.979,-22.217,128.662
0.198,-0.917,-0.582,-7.874,-22.583,125.793
0.203,-0.755,-0.745,17.456,-20.996,127.502
0.116,-0.927,-0.709,-25.757,-27.710,128.174
0.168,-0.868,-0.859,26.978,-47.424,122.620
0.240,-0.765,-0.875,43.457,-67.444,120.972
-0.044,-1.008,-0.840,19.653,-91.553,131.592
-0.316,-1.359,-0.867,11.536,-105.469,140.015
-0.369,-1.121,-0.885,-2.747,-108.032,157.715
-0.170,-0.583,-0.968,-44.739,-103.149,170.166
-0.062,-0.225,-0.927,-46.692,-101.624,162.292
0.007,-0.301,-0.987,-18.738,-116.211,139.709
-0.052,-0.413,-0.925,6.348,-145.996,126.892
-0.204,-0.463,-0.763,10.925,-170.105,124.695
-0.274,-0.374,-0.579,6.348,-183.289,126.587
-0.249,-0.187,-0.453,-1.770,-182.800,127.930
-0.207,-0.148,-0.380,2.075,-178.650,124.329
-0.193,-0.340,-0.410,19.897,-173.767,118.469
-0.171,-0.413,-0.434,21.362,-173.096,121.338
-0.154,-0.304,-0.440,9.888,-175.171,129.456
-0.167,-0.210,-0.472,0.549,-178.040,134.460
-0.157,-0.186,-0.552,4.272,-181.702,132.812
-0.211,-0.295,-0.648,10.132,-186.157,128.235
-0.237,-0.227,-0.710,6.409,-194.519,127.930
-0.236,0.063,-0.658,-1.587,-210.510,130.676
-0.303,0.125,-0.539,10.132,-232.117,127.563
-0.323,0.084,-0.329,28.137,-256.470,120.972
-0.309,0.121,-0.124,36.987,-275.879,118.896
-0.386,-0.115,0.036,45.593,-283.813,115.540
-0.379,-0.307,0.115,49.011,-278.259,116.455
-0.382,-0.354,0.078,28.503,-259.033,126.160
-0.388,-0.295,-0.016,9.766,-232.727,139.221
-0.352,-0.185,-0.232,-3.479,-207.825,151.978
-0.285,0.072,-0.433,-6.104,-197.327,160.828
-0.337,0.310,-0.536,7.874,-216.309,161.926
-0.606,0.432,-0.383,31.738,-261.230,154.053
-1.051,0.496,0.001,45.715,-318.604,142.273
-0.982,0.362,0.508,50.964,-370.789,131.775
-1.286,0.514,1.197,43.579,-417.786,127.441
-1.404,0.806,1.879,16.785,-443.970,124.390
-1.535,0.912,2.503,8.545,-450.439,116.394
-1.686,0.822,3.421,-25.757,-447.083,106.567
-1.869,1.729,4.000,-116.150,-421.570,116.028
-1.907,2.323,4.000,-102.905,-351.868,102.173
-1.875,1.939,4.000,-73.181,-202.271,48.584
-1.569,1.933,4.000,-26.978,9.338,10.864
-1.066,1.668,3.190,9.705,154.785,-15.869
-0.679,0.895,2.152,31.738,215.393,-42.908
-0.087,0.256,1.346,47.302,251.770,-45.593
0.398,-0.203,0.506,57.129,291.931,-30.151
0.710,-0.494,-0.281,28.748,319.153,-16.541
0.834,-0.425,-1.084,-15.564,311.218,-9.216
0.773,0.095,-1.606,-26.245,238.220,-4.944
0.436,0.820,-1.496,-34.058,97.717,-11.169
0.049,1.023,-0.500,-30.212,-79.956,-37.537
-0.253,0.926,0.990,-1.038,-236.633,-62.439
-0.561,0.635,2.695,-0.427,-336.121,-68.298
-0.700,0.667,4.000,-75.439,-351.074,-45.654
-0.496,1.333,4.000,-32.227,-216.675,-13.000
-0.620,0.956,3.995,45.959,92.346,-36.316
-0.604,0.670,2.205,104.736,313.354,-62.988
-0.353,0.531,1.000,83.557,369.080,-64.575
-0.125,0.264,0.405,48.096,344.666,-69.458
0.077,0.143,0.058,16.296,291.687,-69.824
0.231,0.164,-0.061,23.804,233.337,-69.031
0.339,0.075,-0.059,21.057,177.307,-75.562
0.394,-0.062,0.140,32.043,130.127,-80.627
0.394,-0.078,0.396,19.958,102.539,-78.918
0.427,-0.032,0.665,12.512,92.468,-74.219
0.415,0.023,0.853,-0.793,100.830,-69.275
0.437,0.003,0.822,5.005,121.338,-65.979
0.424,-0.073,0.596,12.451,146.240,-64.026
0.442,-0.076,0.327,10.498,166.077,-60.608
0.467,-0.041,0.071,5.493,175.903,-58.228
0.485,-0.011,-0.112,1.953,172.241,-56.885
0.488,-0.013,-0.254,6.165,156.921,-57.312
0.504,-0.037,-0.309,15.564,131.287,-59.082
0.528,-0.050,-0.289,19.470,99.548,-59.998
0.525,-0.081,-0.126,20.081,67.627,-60.242
0.520,-0.134,0.101,22.461,41.992,-58.777
0.543,-0.145,0.364,19.531,26.855,-55.969
0.565,-0.089,0.603,0.793,24.597,-53.284
0.568,-0.031,0.741,-8.606,34.241,-51.880
0.556,0.024,0.745,-11.108,51.331,-52.185
0.534,0.104,0.666,-4.333,66.223,-53.162
0.494,0.058,0.544,7.874,75.378,-55.847
0.478,-0.065,0.463,21.729,77.026,-57.312
0.499,-0.135,0.425,26.123,74.097,-54.382
0.502,-0.219,0.450,26.428,69.824,-49.866
0.517,-0.306,0.514,24.719,65.369,-44.983
,,,,,
0.164,-1.993,0.348,107.910,109.192,169.434
0.079,-1.195,0.301,135.437,93.079,194.458
0.196,-1.141,0.231,165.344,69.458,196.716
0.275,-1.285,0.131,214.233,56.335,184.509
0.266,-1.229,0.100,186.584,57.739,184.753
0.344,-1.237,0.073,200.073,65.796,179.932
0.504,-1.162,-0.291,212.708,69.092,173.584
0.470,-1.323,-0.463,97.656,92.407,166.809
0.262,-1.468,-0.483,-4.211,107.788,165.771
0.213,-1.931,-0.368,90.210,54.565,159.729
0.464,-1.788,-0.404,166.870,5.005,169.250
0.547,-1.477,-0.210,121.460,-22.766,187.744
0.401,-1.289,-0.027,69.031,-31.921,200.134
0.440,-1.245,0.019,70.557,-29.724,197.510
0.507,-1.158,-0.021,72.937,-15.747,192.505
0.714,-0.830,-0.185,60.486,-1.221,185.852
0.158,-1.409,-0.529,20.874,18.921,173.523
0.348,-1.371,-0.464,-40.405,33.691,171.021
0.397,-0.832,-0.800,48.584,9.277,171.387
0.482,-0.574,-0.578,43.518,-24.353,165.405
0.398,-0.771,-0.560,22.766,-41.382,152.039
0.406,-0.985,-0.492,57.129,-56.763,135.681
0.481,-0.836,-0.493,57.678,-64.819,136.230
0.351,-0.702,-0.390,40.588,-73.853,143.127
0.281,-0.825,-0.402,43.274,-77.698,141.113
0.245,-0.931,-0.449,37.964,-74.463,140.137
0.263,-0.922,-0.517,27.954,-70.801,141.663
0.289,-0.729,-0.580,7.080,-67.993,143.616
0.327,-0.622,-0.565,-16.968,-67.993,139.099
0.395,-0.530,-0.609,-16.479,-72.266,128.357
0.357,-0.539,-0.564,-13.306,-79.102,120.667
0.333,-0.551,-0.547,-6.775,-87.524,115.723
0.295,-0.610,-0.520,-3.601,-92.407,112.427
0.250,-0.588,-0.482,-11.658,-92.651,112.000
0.239,-0.548,-0.480,-13.428,-91.553,111.023
0.276,-0.530,-0.483,-11.536,-91.309,110.291
0.285,-0.606,-0.492,-7.812,-93.750,109.558
0.300,-0.654,-0.505,-6.409,-96.741,110.535
0.306,-0.572,-0.498,-15.381,-99.060,113.586
0.267,-0.442,-0.487,-25.391,-102.051,114.319
0.247,-0.386,-0.483,-23.987,-103.577,110.474
0.249,-0.374,-0.503,-18.127,-106.750,105.774
0.180,-0.439,-0.511,-11.169,-111.328,102.783
0.093,-0.454,-0.496,-5.249,-115.540,102.966
0.046,-0.475,-0.513,-1.099,-118.652,105.652
0.007,-0.503,-0.548,6.653,-119.263,108.337
0.004,-0.549,-0.649,7.629,-121.033,111.206
0.006,-0.568,-0.749,11.780,-126.709,115.173
-0.007,-0.506,-0.842,10.559,-137.085,119.934
-0.038,-0.322,-0.849,8.484,-155.029,122.437
-0.079,-0.177,-0.782,13.428,-178.467,119.690
-0.118,-0.191,-0.658,24.231,-200.684,113.342
-0.180,-0.281,-0.547,36.560,-216.553,109.619
-0.214,-0.344,-0.495,38.452,-224.731,111.023
-0.226,-0.451,-0.516,32.654,-228.210,115.784
-0.256,-0.543,-0.593,19.470,-231.384,122.742
-0.295,-0.369,-0.592,-7.812,-236.023,133.728
-0.304,-0.034,-0.557,-33.813,-241.760,141.235
-0.297,0.096,-0.519,-38.696,-245.544,138.916
-0.314,0.026,-0.457,-23.437,-249.329,132.141
-0.296,0.162,-0.390,-13.550,-258.240,132.324
-0.329,0.429,-0.247,-2.502,-273.132,134.766
-0.421,0.498,-0.009,20.569,-292.358,129.700
-0.561,0.284,0.188,47.729,-312.683,120.911
-0.787,0.038,0.419,57.068,-325.684,116.211
-0.843,-0.085,0.648,44.312,-329.163,121.460
-0.712,0.035,0.828,21.057,-321.594,139.038
-0.828,0.335,0.992,8.057,-313.293,150.208
-0.814,0.374,1.137,-2.808,-298.340,145.569
-0.768,0.296,1.229,2.625,-280.823,135.742
-0.818,0.432,1.357,-14.648,-271.484,135.559
-1.052,0.732,1.540,-27.039,-270.508,137.817
-1.185,1.045,1.776,-26.306,-282.898,134.766
-1.639,1.278,2.223,-20.508,-316.772,120.483
-2.079,1.379,2.970,-5.676,-366.455,99.121
-2.312,1.339,4.000,-37.292,-419.128,83.069
-2.253,2.261,4.000,-78.979,-398.987,83.374
-2.078,1.830,4.000,-7.263,-199.097,50.903
-1.695,0.908,4.000,20.630,161.926,-17.883
-0.930,0.911,2.157,34.302,340.942,-32.227
-0.406,0.914,1.122,18.005,384.888,-29.846
0.020,0.455,0.197,4.333,382.263,-39.368
0.359,0.112,-0.386,-13.916,359.436,-42.175
0.532,0.137,-1.040,-4.578,319.763,-33.569
0.685,0.266,-1.433,1.282,244.812,-30.029
0.701,0.165,-1.418,13.672,141.785,-45.227
0.450,0.003,-0.923,16.174,21.423,-55.664
0.334,-0.010,-0.100,10.498,-79.895,-50.842
0.274,0.263,0.802,2.319,-143.127,-39.612
0.127,0.497,1.568,3.967,-171.814,-36.011
0.103,0.300,2.346,-4.761,-166.138,-38.818
-0.081,0.320,2.845,-26.245,-116.577,-36.865
-0.185,0.612,2.886,-0.854,-27.710,-28.198
-0.192,0.457,2.342,28.381,67.871,-36.682
-0.210,0.273,1.688,48.462,130.432,-43.152
-0.163,0.342,1.201,31.067,154.175,-40.039
-0.064,0.420,0.936,24.902,143.311,-38.147
-0.016,0.294,0.868,20.935,121.460,-45.959
0.040,0.227,0.944,21.057,100.586,-51.331
0.094,0.203,1.065,15.137,91.309,-52.307
0.133,0.201,1.122,15.625,95.642,-52.612
0.169,0.218,1.051,15.686,109.619,-52.856
0.189,0.202,0.906,20.447,123.718,-54.688
0.202,0.181,0.745,23.193,133.240,-55.786
0.207,0.175,0.622,22.217,135.498,-56.824
0.212,0.146,0.541,21.179,131.104,-58.533
0.221,0.085,0.514,22.217,122.742,-59.692
0.224,0.047,0.545,22.217,113.770,-58.350
0.230,0.068,0.618,21.118,108.337,-55.847
0.256,0.072,0.675,21.179,108.704,-53.528
0.319,0.014,0.685,24.109,114.258,-52.246
0.362,0.032,0.652,23.926,121.582,-50.049
0.410,0.050,0.572,23.376,126.526,-49.316
0.448,-0.000,0.469,25.696,126.709,-52.551
0.453,-0.039,0.387,21.667,122.131,-56.213
0.440,-0.071,0.339,11.963,113.464,-60.303
0.442,-0.099,0.338,-0.793,103.760,-64.697
0.450,-0.109,0.365,-13.733,95.886,-68.176
0.448,-0.090,0.417,-22.278,90.515,-68.970
,,,,,
-1.414,0.768,2.292,-15.076,-433.228,93.201
-1.355,1.285,3.222,-107.544,-429.077,96.313
-1.269,1.874,3.992,-114.746,-383.728,90.027
-1.180,1.539,4.000,-48.279,-283.630,51.636
-1.023,1.283,3.977,3.784,-147.339,25.879
-1.084,1.248,3.225,38.513,-34.180,15.015
-0.942,0.706,2.618,58.777,34.363,-0.549
-0.649,0.456,2.111,71.045,64.148,0.183
-0.358,0.592,1.773,61.157,81.482,5.432
-0.210,0.446,1.481,54.321,84.045,-6.470
-0.097,0.153,1.287,29.907,85.266,-24.048
-0.013,0.177,1.087,3.845,84.412,-26.794
0.176,0.313,0.909,-16.846,85.815,-24.841
0.292,0.334,0.693,-32.654,87.158,-30.273
0.345,0.352,0.592,-46.509,86.060,-39.307
0.316,0.495,0.484,-44.006,75.623,-42.419
0.250,0.577,0.543,-32.288,51.392,-43.457
0.157,0.400,0.766,-5.859,22.644,-47.729
0.097,0.244,1.115,9.827,-2.869,-45.288
0.058,0.333,1.493,6.592,-14.221,-35.156
0.052,0.414,1.780,0.977,-3.723,-30.701
0.014,0.405,1.878,1.526,23.621,-33.813
-0.012,0.396,1.797,6.958,57.434,-38.391
-0.025,0.386,1.585,10.986,86.121,-43.030
-0.043,0.348,1.389,11.536,102.966,-46.326
-0.028,0.353,1.267,8.484,108.765,-47.607
0.001,0.378,1.228,5.371,109.131,-48.523
0.031,0.375,1.236,9.155,109.863,-49.805
0.049,0.319,1.238,20.386,113.220,-50.171
0.072,0.274,1.210,32.898,119.812,-49.072
0.099,0.216,1.140,41.321,128.723,-48.096
0.135,0.146,1.045,45.593,136.230,-47.546
0.180,0.092,0.949,43.457,141.113,-46.692
0.219,0.085,0.856,35.645,144.226,-46.387
0.275,0.193,0.776,25.391,144.714,-46.326
0.309,0.225,0.720,17.822,142.029,-49.927
0.313,0.114,0.675,17.334,137.390,-55.420
0.323,0.034,0.639,14.648,133.972,-57.190
0.350,0.054,0.618,5.920,133.972,-55.664
0.377,0.122,0.598,-0.854,134.888,-54.016
0.403,0.151,0.562,-1.099,135.803,-54.626
0.422,0.108,0.517,1.770,136.902,-56.702
0.440,0.054,0.467,7.080,137.024,-57.495
0.461,0.031,0.402,10.071,135.681,-56.335
0.487,0.036,0.359,9.644,131.775,-55.298
0.503,0.039,0.334,8.728,125.427,-55.908
0.513,0.037,0.331,9.033,117.249,-57.129
0.542,0.038,0.348,8.972,109.680,-58.472
0.542,-0.008,0.374,8.850,103.699,-59.937
0.542,-0.097,0.396,8.606,100.525,-60.120
0.542,-0.111,0.419,6.958,100.159,-56.702
0.513,-0.111,0.420,5.249,100.830,-52.673
0.561,-0.165,0.401,2.502,103.760,-52.063
0.594,-0.104,0.387,-2.136,106.384,-50.415
0.613,-0.146,0.369,-4.395,106.689,-50.293
0.610,-0.169,0.354,-4.700,103.638,-49.683
0.631,-0.152,0.346,-8.850,97.778,-48.889
0.675,-0.194,0.330,-12.329,92.163,-50.964
0.700,-0.199,0.296,-17.273,89.294,-53.589
0.688,-0.204,0.268,-27.954,86.914,-54.565
0.708,-0.240,0.233,-35.400,83.130,-55.054
0.757,-0.111,0.230,-43.213,78.369,-54.016
0.733,-0.112,0.219,-46.326,74.829,-56.030
0.696,-0.201,0.217,-47.791,71.411,-58.716
0.694,-0.132,0.216,-47.363,69.885,-56.824
0.727,0.067,0.223,-44.006,68.481,-53.955
0.772,0.080,0.226,-31.616,66.467,-57.556
0.771,-0.023,0.245,-10.132,62.439,-62.561
0.787,-0.075,0.264,8.545,56.396,-63.354
0.807,-0.143,0.292,23.132,50.415,-62.683
0.819,-0.217,0.336,28.870,46.631,-61.462
0.791,-0.306,0.385,28.320,43.884,-60.181
0.745,-0.346,0.424,23.437,42.419,-58.411
0.698,-0.329,0.435,16.174,43.823,-57.495
0.730,-0.344,0.391,3.906,48.401,-58.411
0.780,-0.342,0.290,-8.667,55.237,-57.922
0.733,-0.364,0.160,-19.348,60.608,-56.946
0.728,-0.331,0.076,-34.851,61.707,-54.749
0.767,-0.307,0.024,-48.767,59.387,-54.810
0.805,-0.312,0.024,-53.589,51.392,-55.542
0.840,-0.293,0.072,-52.063,40.649,-56.396
0.873,-0.257,0.132,-50.903,32.593,-57.129
0.865,-0.172,0.221,-46.753,27.954,-56.335
0.843,-0.137,0.278,-37.537,25.330,-57.556
0.813,-0.179,0.282,-24.109,26.733,-60.669
0.801,-0.219,0.268,-15.625,30.273,-62.805
0.800,-0.267,0.229,-3.540,32.227,-63.721
0.792,-0.328,0.209,7.568,30.762,-62.256
0.787,-0.451,0.171,11.719,29.297,-61.646
0.764,-0.527,0.158,2.380,28.198,-59.570
0.787,-0.549,0.154,-10.315,25.818,-56.946
0.801,-0.557,0.155,-13.428,21.912,-54.932
0.817,-0.517,0.160,-24.780,19.287,-52.979
0.833,-0.522,0.163,-32.410,17.517,-50.903
0.869,-0.511,0.155,-36.133,15.503,-48.157
0.861,-0.434,0.169,-41.382,13.855,-44.189
0.838,-0.339,0.193,-42.053,10.315,-40.894
0.856,-0.307,0.218,-34.119,5.676,-42.053
0.813,-0.345,0.226,-31.372,4.578,-44.739
0.773,-0.365,0.218,-30.823,3.967,-45.410
0.758,-0.382,0.212,-33.203,3.174,-45.593
0.752,-0.410,0.240,-34.424,1.648,-45.837
0.755,-0.398,0.275,-35.706,-0.183,-45.288
0.788,-0.367,0.291,-30.884,-1.526,-44.922
0.812,-0.377,0.302,-32.715,1.709,-47.058
0.832,-0.401,0.286,-32.776,5.249,-49.011
0.858,-0.427,0.257,-29.602,6.775,-49.500
0.860,-0.444,0.234,-34.058,6.348,-49.194
0.824,-0.423,0.247,-39.246,3.357,-48.828
0.787,-0.428,0.253,-46.997,-0.427,-49.927
0.787,-0.460,0.288,-51.758,-3.723,-51.147
0.745,-0.485,0.322,-54.932,-7.080,-51.331
0.755,-0.513,0.329,-62.256,-7.385,-51.270
0.670,-0.520,0.288,-65.979,-5.859,-48.828
0.797,-0.431,0.266,-95.032,-8.789,-40.283
0.875,-0.536,0.260,-135.742,-5.249,-44.434
0.860,-0.522,0.298,-91.187,-10.986,-47.119
0.792,-0.513,0.288,-60.608,-15.015,-47.424
0.792,-0.387,0.337,-87.158,-16.724,-45.227
,,,,,
0.100,-1.581,0.695,125.488,66.101,112.854
0.202,-1.418,0.558,120.117,62.073,115.295
0.156,-1.518,0.519,89.783,67.932,110.046
0.067,-1.480,0.397,73.120,71.655,110.840
0.044,-1.729,0.377,77.454,66.589,109.253
0.025,-1.865,0.317,69.824,63.599,115.662
0.019,-1.845,0.234,62.317,60.913,126.343
0.052,-1.814,0.161,50.110,58.472,136.536
0.132,-1.765,0.301,1.770,61.707,143.738
0.047,-1.463,0.222,4.272,69.702,152.344
0.164,-1.620,0.353,56.885,48.218,148.254
0.158,-1.794,0.330,46.509,36.621,150.146
0.137,-1.787,0.300,41.382,41.992,157.898
0.224,-1.762,0.183,37.598,49.744,170.532
0.013,-1.618,0.120,35.583,53.284,187.744
-0.017,-1.696,0.037,38.269,53.528,192.749
0.092,-1.845,-0.054,45.959,53.955,195.190
0.090,-1.568,-0.072,48.340,49.927,202.454
0.047,-1.328,-0.130,67.200,33.630,202.881
0.120,-1.289,-0.108,57.922,24.719,195.923
0.136,-1.552,-0.076,46.509,25.024,188.049
0.172,-1.361,-0.210,48.340,27.100,188.232
0.233,-1.091,-0.294,43.152,33.020,186.646
0.273,-1.156,-0.451,30.640,31.067,177.795
0.092,-1.241,-0.427,-3.418,20.569,173.279
0.113,-1.246,-0.485,-0.488,9.277,171.143
0.216,-1.067,-0.496,30.151,1.587,169.556
0.234,-1.010,-0.487,26.489,-7.446,166.077
0.205,-1.251,-0.433,13.733,-16.968,159.546
0.138,-1.126,-0.373,-2.808,-23.315,159.851
0.133,-1.295,-0.364,-33.813,-18.433,160.767
0.202,-1.021,-0.302,-3.601,-27.344,166.565
0.348,-0.976,-0.314,19.592,-35.767,162.842
0.320,-1.088,-0.295,5.737,-40.649,160.278
0.275,-1.135,-0.305,3.479,-33.386,158.569
0.277,-1.032,-0.366,7.996,-23.804,157.898
0.300,-0.948,-0.448,10.742,-20.691,154.053
0.308,-0.965,-0.583,17.456,-28.259,151.550
0.251,-1.014,-0.653,11.963,-39.673,155.273
0.266,-0.914,-0.712,7.751,-54.443,160.034
0.278,-0.759,-0.698,4.211,-73.181,160.706
0.359,-0.710,-0.649,9.521,-91.919,152.344
0.351,-0.781,-0.533,14.587,-108.582,143.066
0.344,-0.737,-0.437,7.690,-120.728,139.832
0.310,-0.711,-0.315,1.038,-123.596,140.259
0.306,-0.729,-0.269,-7.568,-119.812,141.235
0.293,-0.696,-0.296,-7.874,-112.000,142.822
0.291,-0.663,-0.364,-14.404,-103.149,144.348
0.292,-0.570,-0.416,-17.456,-97.290,143.250
0.313,-0.467,-0.466,-13.611,-95.215,140.747
0.295,-0.431,-0.519,-8.301,-99.426,137.207
0.305,-0.447,-0.537,1.282,-109.619,131.897
0.271,-0.477,-0.543,4.211,-123.108,128.540
0.210,-0.524,-0.508,0.977,-138.550,126.404
0.172,-0.524,-0.391,-7.812,-150.940,126.709
0.129,-0.463,-0.257,-21.057,-156.067,128.479
0.136,-0.391,-0.196,-37.292,-152.283,129.700
0.151,-0.249,-0.251,-47.180,-139.221,130.981
0.160,-0.103,-0.340,-53.406,-130.188,132.141
0.144,-0.201,-0.407,-41.565,-125.305,126.831
0.133,-0.294,-0.526,-28.320,-127.686,123.108
0.145,-0.227,-0.515,-21.912,-138.367,124.878
0.160,-0.141,-0.523,-18.372,-154.846,125.732
0.105,-0.137,-0.426,-9.033,-169.861,121.094
0.032,-0.154,-0.385,-4.761,-180.786,115.051
0.009,-0.249,-0.305,0.977,-187.927,110.596
-0.045,-0.322,-0.254,4.272,-192.261,112.366
-0.043,-0.214,-0.255,-2.380,-194.641,119.690
-0.057,-0.105,-0.233,-3.479,-196.228,125.488
-0.057,-0.069,-0.217,0.732,-200.989,126.953
-0.104,-0.095,-0.190,5.737,-207.458,127.319
-0.107,-0.049,-0.169,9.827,-214.478,128.296
-0.112,0.013,-0.126,10.437,-221.619,128.845
-0.220,0.074,-0.125,10.986,-229.187,128.723
-0.292,0.092,-0.101,17.273,-236.572,127.991
-0.311,0.017,-0.098,24.536,-240.784,130.310
-0.360,0.145,-0.087,29.175,-247.986,135.498
-0.432,0.320,-0.045,27.710,-258.667,138.123
-0.505,0.323,0.094,38.086,-273.071,134.460
-0.617,0.199,0.302,61.096,-292.419,128.784
-0.722,0.236,0.553,60.303,-311.279,129.272
-0.856,0.447,0.949,54.138,-327.942,130.737
-0.962,0.520,1.281,40.955,-335.205,122.925
-1.000,0.447,1.655,33.752,-332.764,110.657
-1.094,0.414,1.966,11.841,-316.833,103.821
-1.080,0.649,2.320,-16.113,-293.884,105.957
-1.150,0.959,2.643,-57.373,-264.465,104.065
-1.218,1.067,2.957,-66.895,-230.652,90.210
-1.197,1.023,3.199,-68.237,-185.547,72.693
-1.194,1.161,3.356,-66.284,-132.263,60.486
-1.032,1.444,3.329,-47.791,-71.045,48.828
-0.835,1.147,3.011,-18.616,-3.723,26.917
-0.658,0.892,2.442,14.587,64.819,4.883
-0.345,0.765,1.757,33.020,120.911,-4.578
-0.101,0.422,1.135,33.386,154.907,-9.460
0.097,0.279,0.600,33.936,168.030,-6.775
0.227,0.449,0.186,11.597,161.926,-3.296
0.236,0.433,-0.063,16.052,131.287,-9.949
0.186,0.307,-0.066,25.085,78.674,-23.376
0.139,0.306,0.251,30.701,15.564,-29.907
0.084,0.382,0.777,32.593,-37.842,-33.875
0.008,0.374,1.311,34.119,-69.885,-40.039
-0.093,0.183,1.828,27.405,-73.730,-44.800
-0.181,0.211,2.192,11.719,-48.523,-39.307
-0.230,0.378,2.302,7.751,0.183,-32.959
-0.252,0.403,2.085,18.860,58.289,-35.522
-0.246,0.353,1.688,30.334,105.408,-39.673
-0.210,0.298,1.316,29.236,130.981,-41.199
-0.155,0.331,1.078,24.963,135.071,-40.894
-0.095,0.391,0.958,21.973,126.465,-42.419
-0.026,0.334,0.922,29.541,114.258,-48.096
0.012,0.216,0.930,37.903,104.980,-53.162
0.042,0.164,0.963,38.574,102.356,-54.626
0.077,0.150,0.977,35.828,106.384,-54.382
0.086,0.093,0.945,35.645,115.051,-53.894
0.081,0.076,0.895,35.461,124.878,-51.147
0.114,0.084,0.842,31.982,132.935,-47.791
0.170,0.078,0.781,30.579,138.672,-45.166
0.231,0.135,0.710,29.175,140.198,-43.030
,,,,,
0.286,-1.368,-0.891,34.607,-30.273,177.734
0.203,-1.401,-0.901,50.293,-53.284,176.453
0.098,-1.313,-0.833,28.931,-75.928,181.458
0.138,-1.223,-0.775,23.315,-87.952,183.533
0.194,-1.160,-0.775,23.499,-95.215,183.044
0.173,-1.103,-0.727,3.235,-99.182,184.814
0.109,-1.123,-0.718,-2.014,-98.022,184.570
0.131,-1.126,-0.689,0.488,-95.276,183.472
0.173,-0.949,-0.771,7.568,-88.989,185.486
0.152,-0.754,-0.793,-0.610,-82.336,186.462
0.126,-0.747,-0.815,-15.137,-76.050,181.152
0.112,-0.718,-0.866,-1.343,-74.768,173.584
0.128,-0.704,-0.862,7.629,-81.787,169.067
0.249,-0.564,-0.949,11.353,-93.628,167.114
0.123,-0.528,-0.968,13.306,-119.385,167.908
0.061,-0.585,-1.130,5.615,-150.574,165.649
0.072,-0.518,-1.139,3.418,-173.340,162.170
-0.052,-0.388,-1.039,-28.259,-190.796,160.522
-0.092,-0.201,-0.765,-40.405,-207.520,151.978
-0.027,-0.110,-0.604,-37.354,-212.097,136.536
0.065,-0.131,-0.411,-33.264,-210.388,123.108
0.131,-0.240,-0.323,-16.663,-206.909,113.831
0.182,-0.254,-0.201,-13.367,-201.050,111.023
0.200,-0.201,-0.158,-21.301,-192.871,113.953
0.202,-0.151,-0.123,-21.240,-182.556,113.892
0.227,-0.094,-0.167,-20.386,-171.570,111.206
0.217,-0.074,-0.168,-15.747,-164.612,106.262
0.186,-0.151,-0.214,-7.019,-161.133,98.694
0.181,-0.211,-0.269,-9.521,-159.607,94.543
0.159,-0.225,-0.279,-17.578,-161.621,93.994
0.108,-0.191,-0.272,-21.301,-165.710,95.459
0.098,-0.147,-0.255,-24.414,-168.030,95.947
0.106,-0.144,-0.224,-20.386,-169.739,95.398
0.115,-0.120,-0.236,-14.221,-171.997,96.130
0.148,-0.104,-0.242,-10.010,-174.744,96.680
0.140,-0.206,-0.262,2.808,-179.687,95.215
0.058,-0.369,-0.300,11.353,-187.134,95.581
-0.009,-0.457,-0.308,10.620,-192.200,98.206
-0.058,-0.411,-0.318,-7.507,-194.153,103.394
-0.125,-0.341,-0.308,-21.545,-195.129,108.032
-0.190,-0.321,-0.323,-28.503,-195.618,111.206
-0.201,-0.244,-0.349,-34.363,-198.425,115.173
-0.266,-0.161,-0.403,-35.217,-202.515,118.652
-0.317,-0.080,-0.420,-31.677,-210.022,122.009
-0.255,0.087,-0.445,-25.696,-223.938,128.235
-0.270,0.290,-0.389,-20.203,-249.939,129.761
-0.397,0.328,-0.212,-15.015,-281.799,121.704
-0.478,0.393,0.010,-9.705,-309.814,115.356
-0.653,0.533,0.352,-16.907,-327.698,109.497
-0.749,0.621,0.700,-20.142,-332.642,102.783
-0.757,0.571,0.977,-19.348,-325.439,97.595
-0.729,0.596,1.213,-20.691,-309.875,98.938
-0.733,0.738,1.417,-28.198,-291.260,104.309
-0.696,0.885,1.572,-38.330,-271.545,107.788
-0.719,0.986,1.721,-35.156,-252.075,104.736
-0.779,1.051,1.851,-25.513,-235.168,97.107
-0.830,1.166,2.038,-17.944,-222.595,87.097
-1.004,1.202,2.301,-11.780,-217.163,73.914
-1.078,1.063,2.717,-8.545,-213.379,62.744
-1.023,1.011,3.177,-10.986,-192.993,58.777
-0.936,1.027,3.474,-15.503,-140.015,54.382
-0.798,1.045,3.402,-2.075,-52.734,43.030
-0.549,0.729,2.793,11.414,53.528,18.921
-0.360,0.459,1.920,30.457,142.883,1.587
-0.097,0.287,1.157,28.381,194.580,-0.732
0.128,0.247,0.532,12.512,206.299,3.479
0.186,0.355,0.108,-14.954,185.303,6.836
0.248,0.517,-0.115,-10.681,137.085,5.005
0.205,0.518,-0.061,7.263,69.153,-3.235
0.146,0.466,0.349,26.245,-2.808,-12.634
0.013,0.479,0.914,36.438,-57.495,-21.118
-0.030,0.323,1.571,33.630,-87.341,-26.978
-0.031,0.362,2.203,-8.911,-82.275,-23.010
-0.038,0.681,2.513,-30.029,-32.715,-17.273
-0.075,0.750,2.297,-2.869,41.565,-26.367
-0.111,0.587,1.807,24.902,107.971,-42.175
-0.102,0.522,1.271,33.997,142.944,-47.974
-0.079,0.509,0.955,28.442,145.203,-48.645
-0.043,0.470,0.792,25.452,127.258,-51.453
0.001,0.392,0.834,23.437,102.539,-56.763
0.043,0.344,0.978,18.860,83.008,-61.584
0.075,0.310,1.165,14.038,76.355,-64.880
0.072,0.229,1.240,13.306,85.327,-66.467
0.054,0.205,1.211,14.709,104.675,-64.758
0.058,0.237,1.084,16.113,124.634,-61.768
0.069,0.241,0.946,21.362,138.855,-59.937
0.078,0.232,0.815,28.320,143.738,-58.716
0.115,0.186,0.730,34.180,139.587,-58.777
0.146,0.140,0.690,36.316,131.775,-59.937
0.176,0.144,0.678,33.752,124.634,-61.340
0.210,0.174,0.680,28.137,120.361,-64.209
0.240,0.137,0.674,23.743,120.117,-68.848
0.256,0.017,0.638,22.705,124.207,-71.167
0.270,-0.038,0.593,18.372,131.836,-67.993
0.296,0.055,0.538,10.376,139.404,-61.523
0.345,0.103,0.452,7.141,142.883,-59.082
0.417,0.076,0.370,7.812,141.357,-60.364
0.462,0.073,0.306,8.850,134.338,-60.730
0.502,0.133,0.286,8.789,123.474,-61.279
0.517,0.183,0.297,11.414,110.962,-65.308
0.491,0.162,0.323,16.663,99.243,-72.266
0.473,0.041,0.352,22.461,90.881,-80.200
0.468,-0.085,0.360,23.743,87.585,-84.778
0.482,-0.198,0.338,18.616,89.355,-83.557
0.464,-0.279,0.317,9.827,93.384,-78.186
0.489,-0.250,0.302,-4.395,97.595,-70.129
0.519,-0.166,0.307,-19.653,100.159,-64.453
0.564,-0.059,0.314,-29.724,99.426,-62.378
0.582,-0.003,0.322,-30.701,94.971,-63.721
0.513,0.044,0.368,-31.067,87.219,-66.650
0.624,-0.032,0.386,-21.851,75.928,-70.190
0.768,0.031,0.411,-6.836,69.824,-72.205
0.729,0.085,0.402,0.427,67.871,-75.012
0.674,-0.090,0.380,12.390,67.017,-82.153
0.639,-0.190,0.336,18.494,67.322,-85.266
0.594,-0.245,0.313,13.245,67.566,-84.351
0.557,-0.347,0.292,8.423,66.772,-82.336
0.590,-0.418,0.285,7.324,64.209,-77.576
0.643,-0.483,0.282,-1.709,63.416,-71.838
,,,,,
-0.236,-1.248,0.881,161.011,152.527,65.491
-0.116,-1.270,0.850,159.729,147.522,73.486
-0.117,-1.347,0.793,169.312,148.254,75.928
-0.215,-1.468,0.649,175.537,141.663,82.764
-0.189,-1.546,0.639,169.189,131.470,93.384
-0.099,-1.478,0.591,166.687,125.122,107.178
-0.188,-1.708,0.480,156.982,123.169,113.464
-0.217,-1.839,0.356,134.827,124.817,120.239
-0.133,-1.842,0.256,120.544,121.338,132.690
-0.017,-1.775,0.242,112.183,108.582,144.714
-0.007,-1.705,0.258,118.713,88.989,153.870
-0.003,-1.776,0.173,118.347,73.914,160.767
-0.062,-1.650,0.177,116.943,75.195,166.504
-0.098,-1.588,0.076,119.812,67.993,173.035
-0.022,-1.326,0.149,108.948,55.481,175.903
-0.020,-1.696,0.172,139.221,35.400,172.302
-0.133,-1.792,0.281,121.643,26.611,176.270
-0.154,-1.512,0.247,147.949,22.461,194.641
-0.065,-1.608,0.138,145.447,23.743,200.134
0.004,-1.758,0.088,139.893,30.945,206.787
0.007,-1.809,-0.009,113.647,45.105,217.590
0.004,-1.745,-0.083,89.905,51.392,229.248
0.057,-1.596,-0.153,108.826,51.453,231.567
0.218,-1.414,-0.259,151.611,48.157,226.624
0.215,-0.916,-0.298,173.584,39.490,220.398
0.212,-1.109,-0.449,144.470,37.903,205.261
0.141,-1.478,-0.649,121.826,44.922,192.749
0.067,-1.379,-0.598,112.671,42.297,194.946
0.075,-1.550,-0.793,147.705,22.583,197.083
0.339,-1.379,-0.994,102.478,8.606,198.303
0.221,-1.209,-1.048,43.518,1.160,203.369
0.291,-1.276,-0.956,53.589,-30.579,192.688
0.345,-1.520,-0.873,52.246,-67.932,180.542
0.194,-1.478,-0.760,15.503,-86.609,186.584
0.056,-0.940,-0.452,-2.747,-89.661,195.435
0.102,-0.797,-0.446,31.372,-91.675,181.580
0.299,-0.960,-0.413,58.228,-91.003,161.377
0.242,-0.958,-0.659,53.284,-82.825,159.241
0.202,-0.915,-0.708,31.860,-70.007,165.649
0.123,-0.943,-0.896,22.644,-67.261,166.870
0.150,-0.722,-1.038,34.485,-79.956,168.335
0.076,-0.790,-1.215,31.189,-99.060,166.382
0.054,-0.653,-1.200,20.691,-122.437,163.940
0.019,-0.523,-1.097,26.123,-148.437,156.738
0.058,-0.521,-0.968,33.325,-169.617,144.714
0.043,-0.736,-0.824,48.767,-186.340,132.751
0.006,-0.880,-0.722,39.368,-194.702,131.958
0.009,-0.805,-0.635,16.174,-191.956,137.817
0.063,-0.513,-0.604,-13.733,-181.396,142.090
0.036,-0.385,-0.626,-25.574,-169.495,137.817
-0.010,-0.415,-0.682,-16.663,-160.950,128.601
-0.026,-0.433,-0.775,-9.338,-156.982,123.596
-0.088,-0.498,-0.855,-1.831,-160.278,122.925
-0.140,-0.622,-0.914,2.197,-168.518,123.840
-0.171,-0.667,-0.950,-7.019,-180.542,127.686
-0.230,-0.698,-0.925,-18.738,-194.153,132.385
-0.228,-0.586,-0.857,-35.095,-202.576,138.367
-0.192,-0.421,-0.801,-54.260,-208.313,143.738
-0.244,-0.584,-0.784,-55.481,-213.745,142.212
-0.334,-0.911,-0.778,-60.059,-216.248,142.761
-0.356,-0.842,-0.749,-86.365,-211.121,156.555
-0.282,-0.244,-0.714,-117.065,-204.041,177.063
-0.339,0.117,-0.775,-111.145,-200.195,184.998
-0.449,0.009,-0.890,-71.167,-208.374,178.467
-0.484,0.061,-0.859,-33.264,-236.511,174.377
-0.528,0.319,-0.599,-17.212,-279.968,174.377
-0.702,0.287,-0.185,-2.808,-323.669,167.725
-0.789,0.362,0.313,5.493,-353.882,160.583
-0.853,0.332,0.663,9.460,-359.192,151.062
-0.723,0.279,0.855,-0.854,-336.487,140.503
-0.570,0.397,0.952,-19.348,-302.856,134.216
-0.600,0.608,0.982,-54.810,-267.822,134.949
-0.509,0.798,0.910,-70.923,-235.535,140.564
-0.566,1.021,0.853,-68.665,-213.440,147.522
-0.539,1.082,0.727,-43.518,-198.792,139.893
-0.466,1.054,0.755,-3.967,-195.374,130.188
-0.500,0.772,0.727,36.926,-202.332,124.390
-0.475,0.462,0.826,74.097,-212.524,122.009
-0.468,0.244,0.892,75.623,-220.276,120.972
-0.479,0.172,1.033,51.208,-221.985,119.263
-0.465,0.322,1.121,11.047,-216.431,118.286
-0.518,0.616,1.269,-28.320,-206.970,111.572
-0.643,0.835,1.431,-60.852,-202.209,97.290
-0.718,1.121,1.692,-80.994,-206.116,85.388
-0.876,1.450,2.041,-84.717,-210.449,74.463
-0.844,1.436,2.429,-62.073,-206.360,60.852
-0.740,1.212,2.780,-30.090,-181.885,47.729
-0.671,1.052,2.935,-6.714,-126.770,36.926
-0.532,0.932,2.753,12.329,-53.894,26.978
-0.531,0.781,2.344,25.146,18.311,12.390
-0.444,0.704,1.829,23.926,70.435,2.747
-0.328,0.752,1.416,10.498,96.069,-2.869
-0.278,0.847,1.150,-5.005,98.206,-10.803
-0.228,0.957,1.103,-14.893,82.153,-20.691
-0.182,0.858,1.205,-7.446,61.951,-32.898
-0.133,0.708,1.379,2.197,51.025,-41.748
-0.081,0.718,1.502,6.104,53.894,-44.495
-0.068,0.704,1.506,13.123,71.838,-48.889
-0.084,0.629,1.373,24.231,93.323,-55.420
-0.068,0.558,1.220,33.569,109.741,-58.777
-0.072,0.524,1.073,37.292,116.638,-57.861
-0.049,0.489,1.030,39.490,115.662,-57.068
-0.031,0.445,1.056,38.025,111.145,-58.655
-0.001,0.460,1.160,33.936,107.910,-59.937
0.007,0.456,1.229,33.325,109.802,-62.866
0.012,0.411,1.249,36.133,117.676,-67.749
0.023,0.359,1.159,39.063,130.493,-71.899
0.033,0.363,1.027,40.222,143.799,-74.341
0.063,0.361,0.877,41.077,154.236,-76.233
0.089,0.232,0.739,45.654,160.156,-77.942
0.117,0.098,0.610,48.767,162.537,-76.294
0.178,0.085,0.508,42.358,161.987,-72.388
0.256,0.074,0.422,30.823,157.715,-72.144
0.308,0.006,0.355,20.508,151.123,-74.890
0.358,0.011,0.299,7.996,143.372,-76.904
0.370,0.119,0.295,-5.554,133.789,-79.285
0.386,0.194,0.312,-9.644,121.704,-84.473
0.395,0.182,0.381,-5.127,109.802,-89.355
0.396,0.086,0.460,8.179,100.098,-90.698
,,,,,
-0.265,-1.430,0.602,196.045,144.836,96.436
-0.114,-1.425,0.477,202.576,139.282,109.497
-0.033,-1.616,0.270,203.613,131.165,118.042
-0.081,-1.729,0.217,200.195,121.826,125.183
-0.218,-1.675,0.140,187.622,114.563,136.414
-0.173,-1.747,0.113,183.044,103.638,146.423
-0.045,-2.054,0.006,178.894,92.346,158.020
0.001,-1.853,0.184,176.819,84.717,175.232
0.013,-1.525,-0.011,187.195,67.200,192.627
0.030,-1.252,0.258,162.903,60.242,191.101
0.074,-1.627,0.065,178.345,51.208,185.181
-0.010,-1.998,0.292,156.006,53.711,181.030
-0.033,-2.012,0.229,125.732,48.523,200.073
-0.055,-2.141,0.127,126.099,48.279,213.013
0.056,-2.077,0.111,80.750,62.683,219.482
0.023,-1.869,-0.297,99.854,75.562,222.046
0.024,-1.576,-0.247,115.234,63.354,222.412
0.075,-1.344,-0.410,119.263,32.471,216.003
0.200,-1.210,-0.383,114.807,17.395,206.238
0.147,-1.332,-0.507,63.232,20.325,198.425
0.108,-1.551,-0.457,42.908,15.991,193.542
0.313,-1.426,-0.595,54.688,8.667,194.885
0.318,-0.665,-0.712,50.049,-2.869,201.416
0.081,-1.018,-0.697,10.803,-8.972,185.303
0.194,-1.435,-0.659,2.197,-22.461,169.189
0.152,-1.342,-0.529,40.894,-47.607,170.349
0.124,-1.121,-0.347,53.833,-72.327,175.415
0.134,-1.037,-0.225,32.593,-76.050,176.819
0.172,-1.064,-0.181,29.602,-64.392,173.035
0.231,-1.007,-0.266,37.781,-54.993,170.227
0.340,-0.908,-0.341,26.367,-45.532,168.213
0.174,-0.867,-0.379,16.724,-38.025,167.358
0.096,-0.783,-0.520,24.658,-37.292,161.560
0.169,-0.651,-0.634,31.921,-32.959,153.748
0.200,-0.599,-0.759,41.931,-39.185,143.188
0.252,-0.546,-0.786,60.303,-57.495,134.460
0.163,-0.638,-0.784,80.627,-82.520,130.859
0.150,-0.812,-0.740,91.675,-102.295,128.967
0.074,-1.027,-0.738,101.257,-117.493,130.859
0.107,-1.118,-0.832,88.684,-129.333,134.827
0.079,-1.198,-0.918,63.416,-137.817,137.634
-0.071,-1.311,-0.988,26.489,-140.747,140.076
-0.189,-1.186,-1.049,-11.841,-136.719,143.250
-0.116,-0.719,-1.138,-53.955,-127.197,143.005
0.013,-0.499,-1.269,-66.956,-120.850,132.263
-0.026,-0.744,-1.465,-39.185,-126.343,118.835
-0.128,-0.963,-1.625,-11.902,-145.447,118.652
-0.150,-0.793,-1.667,-10.193,-173.035,131.165
-0.192,-0.610,-1.583,-5.310,-206.360,139.893
-0.283,-0.703,-1.416,11.963,-238.708,139.771
-0.319,-0.797,-1.181,20.203,-263.672,140.625
-0.269,-0.756,-1.051,15.991,-275.574,146.301
-0.252,-0.771,-1.051,8.850,-278.687,152.161
-0.321,-0.789,-1.122,5.554,-278.137,156.189
-0.405,-0.509,-1.164,-4.089,-276.367,162.415
-0.450,-0.137,-1.167,-5.188,-279.541,163.757
-0.498,-0.049,-1.081,15.381,-292.297,155.640
-0.641,-0.130,-0.952,49.194,-313.110,146.240
-0.603,0.051,-0.750,63.049,-338.623,143.066
-0.667,0.117,-0.551,79.285,-359.985,139.526
-0.832,-0.049,-0.418,105.164,-378.845,131.897
-0.974,-0.081,-0.221,99.548,-397.705,127.014
-1.118,0.020,0.007,74.036,-416.565,124.451
-1.261,0.216,0.309,39.429,-431.091,118.774
-1.319,0.513,0.615,-0.610,-438.782,109.802
-1.553,0.537,0.977,-36.438,-436.951,96.619
-1.206,0.572,1.181,-76.477,-417.542,96.252
-1.239,1.091,1.399,-97.473,-398.865,103.333
-1.197,1.343,1.615,-115.051,-374.023,91.614
-1.154,1.114,1.727,-69.702,-341.125,67.871
-1.157,0.818,1.786,-39.978,-303.406,53.528
-1.043,0.971,1.783,-30.151,-269.104,60.059
-1.134,1.011,1.837,-16.479,-246.521,55.725
-1.179,0.726,1.956,0.916,-230.286,41.626
-1.142,0.478,2.068,6.226,-212.830,31.067
-1.056,0.461,2.232,-8.972,-195.129,28.137
-1.001,0.477,2.388,-31.311,-172.852,27.100
-0.902,0.404,2.535,-42.786,-135.010,19.592
-0.649,0.370,2.510,-49.683,-81.909,13.916
-0.555,0.252,2.289,-34.119,-25.391,10.315
-0.460,0.150,1.884,-17.883,27.527,8.728
-0.346,0.230,1.507,-10.132,63.110,13.245
-0.307,0.226,1.173,-8.545,75.134,14.282
-0.245,0.090,0.932,14.038,72.510,12.207
-0.256,0.015,0.819,23.682,54.504,14.587
-0.198,0.069,0.917,21.729,25.696,18.311
-0.209,0.096,1.149,19.470,0.549,17.700
-0.210,0.155,1.421,10.071,-10.742,13.855
-0.129,0.357,1.625,-3.906,-4.333,7.568
-0.105,0.374,1.720,-14.038,16.296,-5.798
-0.072,0.266,1.625,-15.076,44.617,-17.700
-0.044,0.294,1.460,-17.944,75.806,-20.447
-0.028,0.455,1.235,-23.865,98.633,-20.081
-0.029,0.448,1.051,-17.029,108.032,-24.109
-0.039,0.284,0.922,0.854,103.027,-28.198
-0.040,0.241,0.926,10.925,86.914,-25.696
-0.045,0.281,1.044,12.817,68.115,-23.987
-0.062,0.224,1.210,11.047,54.932,-28.381
-0.079,0.167,1.365,7.751,50.781,-35.217
-0.067,0.120,1.521,-3.479,55.298,-39.978
-0.031,0.199,1.616,-18.005,70.190,-41.443
-0.010,0.292,1.600,-25.085,94.666,-44.617
-0.023,0.275,1.449,-17.090,121.826,-50.415
-0.019,0.181,1.229,-8.484,142.456,-55.542
0.009,0.125,1.035,-3.479,152.771,-55.786
0.061,0.144,0.913,-1.587,153.442,-52.612
0.100,0.139,0.838,0.061,148.315,-50.232
0.118,0.107,0.811,5.188,140.747,-50.049
0.146,0.063,0.823,4.944,134.094,-50.842
0.185,-0.007,0.861,-1.038,131.226,-51.880
0.205,-0.046,0.885,-5.859,133.728,-50.537
0.217,0.003,0.898,-10.803,141.663,-45.837
0.245,0.090,0.865,-11.414,153.442,-41.504
0.328,0.162,0.770,-3.479,164.185,-38.940
0.402,0.205,0.639,12.695,170.166,-38.635
0.423,0.123,0.492,28.564,168.396,-40.771
0.431,0.064,0.379,41.870,158.081,-41.260
0.418,0.034,0.316,45.715,145.203,-40.466
0.418,-0.088,0.313,44.556,131.226,-42.297
,,,,,
0.013,-1.588,-0.662,82.092,4.211,150.085
-0.030,-1.477,-0.560,57.922,-20.081,159.790
0.047,-1.418,-0.435,41.992,-33.081,161.560
0.040,-1.449,-0.306,34.363,-37.659,161.865
0.072,-1.405,-0.223,17.273,-35.034,163.391
0.294,-1.188,-0.200,12.939,-29.114,162.170
0.093,-0.881,-0.302,5.249,-19.165,160.339
0.062,-1.070,-0.328,-9.949,-0.305,140.869
0.134,-1.322,-0.675,17.639,7.446,135.254
0.208,-1.232,-0.646,1.465,2.380,144.531
0.027,-0.879,-0.780,-14.954,-9.827,160.034
0.029,-0.914,-0.620,47.729,-28.137,154.724
0.134,-1.201,-0.744,44.800,-60.791,152.710
0.123,-1.403,-0.574,46.143,-81.909,162.659
0.103,-1.157,-0.577,24.780,-97.107,179.504
0.088,-0.693,-0.424,-15.259,-96.191,187.256
0.210,-0.497,-0.432,-27.283,-84.900,172.058
0.223,-0.609,-0.399,-18.005,-83.313,149.597
0.221,-0.637,-0.446,1.465,-90.942,137.756
0.186,-0.582,-0.458,2.075,-98.328,137.573
0.228,-0.582,-0.505,0.793,-103.760,136.047
0.279,-0.549,-0.532,2.991,-109.253,134.399
0.229,-0.632,-0.509,12.878,-120.422,131.653
0.142,-0.719,-0.424,17.822,-130.066,130.676
0.137,-0.679,-0.358,6.836,-133.118,133.484
0.183,-0.522,-0.261,-5.615,-131.104,136.902
0.220,-0.418,-0.169,-12.939,-126.160,136.047
0.256,-0.464,-0.112,1.038,-120.728,128.723
0.305,-0.528,-0.116,18.738,-113.464,123.535
0.304,-0.548,-0.153,24.109,-107.544,123.657
0.359,-0.485,-0.218,28.259,-105.530,124.634
0.407,-0.429,-0.294,36.194,-109.131,124.084
0.350,-0.529,-0.387,62.683,-117.432,120.728
0.201,-0.719,-0.427,70.679,-125.244,117.371
0.088,-0.854,-0.452,60.974,-129.456,116.516
0.109,-0.810,-0.428,38.818,-131.287,121.338
0.136,-0.693,-0.388,10.071,-133.423,130.615
0.174,-0.512,-0.345,-2.625,-139.465,141.052
0.194,-0.436,-0.287,-4.028,-146.362,145.935
0.224,-0.381,-0.270,6.104,-151.306,145.508
0.232,-0.320,-0.277,23.193,-158.203,141.724
0.172,-0.401,-0.259,36.987,-166.992,133.728
0.114,-0.549,-0.291,39.673,-173.401,127.014
0.056,-0.641,-0.212,30.701,-180.115,126.648
-0.014,-0.615,-0.249,14.832,-186.340,133.484
-0.056,-0.567,-0.228,-6.775,-190.491,139.160
-0.075,-0.475,-0.154,-23.865,-194.763,142.029
-0.092,-0.337,-0.155,-41.504,-195.679,143.982
-0.125,-0.139,-0.153,-52.185,-194.946,144.226
-0.125,0.135,-0.143,-57.678,-200.317,142.334
-0.085,0.363,-0.054,-57.068,-215.637,137.939
-0.098,0.385,0.077,-40.710,-236.267,132.080
-0.170,0.261,0.237,-23.010,-251.953,124.084
-0.177,0.306,0.460,-27.466,-259.521,121.704
-0.287,0.454,0.626,-34.607,-254.883,122.559
-0.207,0.185,0.669,-39.001,-234.985,123.352
-0.107,0.261,0.654,-45.898,-207.031,141.174
-0.124,0.638,0.463,-50.720,-185.303,155.151
-0.124,0.616,0.286,-42.236,-166.138,145.630
-0.098,0.336,0.026,-22.766,-157.410,131.653
-0.117,0.107,-0.161,-22.766,-156.311,127.014
-0.184,0.330,-0.249,-30.640,-166.077,134.277
-0.280,0.832,-0.097,-41.382,-199.524,140.198
-0.461,1.110,0.265,-30.945,-245.728,130.737
-0.788,1.296,0.859,-14.832,-296.204,114.807
-1.146,1.499,1.501,-10.071,-347.412,101.257
-1.369,1.597,2.228,-20.020,-385.010,86.060
-1.499,1.446,2.991,-25.024,-392.883,66.467
-1.281,1.273,3.992,-69.397,-366.394,55.908
-0.894,1.520,4.000,-85.022,-251.221,52.063
-0.563,1.339,3.828,-53.650,-54.810,22.827
-0.431,0.849,2.489,-10.803,125.610,-7.202
-0.231,0.676,1.262,-0.549,217.102,-10.376
-0.002,0.457,0.526,-19.897,236.084,-10.559
0.198,0.341,-0.131,-18.677,214.539,-7.202
0.287,0.421,-0.520,-3.357,153.931,-2.563
0.187,0.495,-0.580,1.221,62.927,-4.883
0.095,0.399,-0.154,13.794,-36.011,-9.338
0.023,0.318,0.501,11.353,-113.831,-11.414
-0.090,0.571,1.298,5.127,-165.894,-6.470
-0.255,0.894,2.022,-16.113,-189.331,-5.493
-0.382,0.995,2.918,-57.495,-179.932,-12.451
-0.344,1.029,3.368,-60.852,-117.676,-19.592
-0.254,1.011,3.150,-14.709,-1.526,-28.748
-0.187,0.739,2.254,24.597,124.451,-40.588
-0.005,0.398,1.266,54.871,205.811,-43.335
0.171,0.102,0.519,38.452,237.549,-35.339
0.336,0.096,-0.083,7.446,229.309,-22.522
0.408,0.266,-0.480,3.540,186.218,-15.442
0.430,0.329,-0.591,6.592,116.028,-18.799
0.341,0.378,-0.279,17.090,29.419,-24.109
0.228,0.432,0.353,20.386,-48.340,-27.466
0.127,0.445,1.050,26.428,-100.220,-29.602
0.031,0.451,1.687,30.029,-117.554,-29.236
-0.012,0.498,2.307,-4.456,-99.548,-25.146
-0.021,0.644,2.568,-17.578,-41.138,-21.179
-0.028,0.676,2.336,9.888,41.931,-25.024
-0.056,0.463,1.749,37.048,119.446,-34.485
0.001,0.360,1.130,42.236,165.100,-34.302
0.083,0.390,0.684,26.550,176.636,-30.579
0.161,0.392,0.420,16.052,162.476,-31.738
0.233,0.382,0.313,17.090,134.033,-35.095
0.279,0.343,0.354,26.306,101.013,-39.307
0.301,0.305,0.518,31.860,71.960,-41.687
0.314,0.294,0.745,38.025,52.063,-41.504
0.328,0.302,0.965,33.508,45.349,-40.955
0.343,0.326,1.098,31.372,53.528,-40.833
0.340,0.326,1.084,28.625,72.144,-41.565
0.317,0.329,0.968,30.884,91.797,-42.603
0.294,0.338,0.820,32.166,104.065,-42.969
0.299,0.327,0.689,34.241,107.239,-43.823
0.318,0.266,0.597,37.476,103.760,-46.082
0.338,0.205,0.580,36.194,96.069,-47.485
0.349,0.164,0.603,33.386,89.539,-48.340
0.360,0.156,0.639,26.978,85.876,-48.767
0.363,0.164,0.677,22.400,85.327,-49.561
0.367,0.115,0.690,20.264,86.548,-51.270
0.382,0.039,0.695,17.395,88.928,-52.246
0.426,-0.001,0.680,13.000,93.994,-50.659
,,,,,
-0.139,-2.220,-0.202,151.306,101.929,98.083
-0.089,-2.182,-0.503,136.841,99.792,116.272
-0.063,-1.745,-0.381,89.050,89.111,128.296
0.010,-1.723,-0.510,110.229,62.378,130.005
0.241,-1.801,-0.304,94.055,34.912,125.427
0.158,-1.846,-0.241,82.031,23.315,129.944
-0.003,-1.819,-0.165,60.608,23.132,138.855
-0.023,-1.866,-0.167,59.387,27.954,144.897
-0.088,-1.878,-0.264,70.313,33.203,150.574
-0.144,-1.877,-0.456,82.520,41.382,155.457
-0.043,-1.925,-0.658,67.993,54.749,159.119
0.059,-1.759,-1.201,37.476,73.059,167.419
-0.209,-1.420,-1.123,-15.198,69.275,175.354
-0.151,-1.520,-0.928,42.053,12.024,167.297
-0.044,-1.868,-0.766,73.059,-38.452,157.349
-0.068,-1.844,-0.535,67.688,-58.228,165.588
-0.101,-1.535,-0.394,59.570,-62.012,177.979
-0.056,-1.390,-0.363,62.317,-54.871,180.176
-0.002,-1.470,-0.493,64.148,-38.269,179.871
-0.035,-1.489,-0.678,61.157,-21.606,186.157
-0.202,-1.458,-0.826,56.641,-17.212,194.214
-0.218,-1.399,-0.973,65.796,-19.470,193.787
-0.071,-1.307,-1.111,76.965,-23.621,187.073
-0.103,-1.306,-1.070,71.533,-36.804,181.641
-0.156,-1.400,-1.092,63.354,-59.875,177.856
-0.193,-1.334,-1.043,55.786,-83.313,179.504
-0.235,-1.149,-1.040,47.363,-101.074,183.716
-0.204,-1.089,-0.986,45.227,-113.586,181.885
-0.132,-1.094,-0.962,49.561,-122.620,177.551
-0.107,-0.992,-0.896,44.983,-129.333,177.795
-0.140,-0.893,-0.816,44.250,-133.240,177.551
-0.147,-0.875,-0.898,46.692,-133.911,175.049
-0.183,-0.859,-0.946,45.288,-135.864,174.988
-0.215,-0.883,-1.037,45.471,-144.104,174.316
-0.230,-0.852,-1.065,38.452,-159.180,172.485
-0.214,-0.799,-1.042,27.527,-177.429,171.448
-0.141,-0.656,-0.935,19.836,-197.144,169.434
-0.117,-0.554,-0.801,12.878,-212.341,166.870
-0.140,-0.469,-0.695,10.742,-222.046,162.292
-0.095,-0.390,-0.633,7.629,-222.656,155.151
-0.062,-0.402,-0.578,10.376,-221.375,146.301
-0.084,-0.450,-0.553,18.860,-219.604,140.930
-0.102,-0.441,-0.561,23.499,-217.102,139.343
-0.089,-0.402,-0.560,21.545,-215.088,139.099
-0.097,-0.412,-0.541,23.987,-216.248,137.390
-0.109,-0.482,-0.519,23.315,-217.957,135.437
-0.108,-0.442,-0.514,14.832,-219.360,137.451
-0.095,-0.286,-0.512,-0.366,-223.083,140.564
-0.082,-0.094,-0.443,-8.362,-227.844,139.709
-0.077,-0.043,-0.448,-4.944,-231.384,131.531
-0.117,-0.142,-0.418,5.615,-232.483,121.033
-0.126,-0.157,-0.389,11.719,-234.131,114.441
-0.123,-0.077,-0.331,2.869,-234.192,112.000
-0.112,0.004,-0.341,-2.747,-235.657,111.877
-0.160,0.040,-0.281,3.052,-238.403,109.436
-0.228,-0.006,-0.273,8.240,-242.432,106.750
-0.267,-0.006,-0.214,11.475,-248.108,104.431
-0.296,0.107,-0.133,6.836,-253.906,104.004
-0.315,0.160,-0.029,5.249,-260.681,102.722
-0.324,0.125,0.049,14.771,-264.832,99.304
-0.351,0.083,0.134,15.686,-265.625,97.595
-0.377,0.127,0.256,16.235,-262.939,97.900
-0.373,0.214,0.319,13.000,-255.371,98.389
-0.402,0.154,0.305,19.165,-240.662,95.581
-0.526,-0.031,0.200,26.550,-220.886,93.567
-0.281,-0.248,-0.099,21.973,-198.120,104.858
-0.295,-0.161,-0.351,16.052,-192.627,126.831
-0.384,0.059,-0.484,3.052,-200.195,137.695
-0.444,-0.043,-0.507,1.770,-220.764,134.399
-0.653,-0.298,-0.420,6.531,-253.662,129.395
-0.905,-0.147,-0.158,-6.226,-289.368,135.376
-1.185,0.310,0.345,-30.151,-328.064,141.296
-1.460,0.590,0.883,-38.025,-368.286,135.010
-1.664,0.730,1.463,-32.471,-407.349,122.192
-1.863,0.815,2.105,-34.851,-446.716,112.366
-2.182,0.923,3.118,-61.707,-492.187,107.361
-2.382,1.287,4.000,-134.399,-529.663,111.572
-2.223,2.014,4.000,-130.188,-481.995,110.352
-2.076,1.443,4.000,-65.918,-258.850,54.810
-1.668,1.126,4.000,-1.648,75.684,8.850
-1.102,1.010,2.557,21.912,259.338,-1.587
-0.624,0.878,1.412,25.085,305.420,-2.502
-0.164,0.629,0.525,28.564,312.378,-4.700
0.182,0.404,-0.036,29.236,304.871,-5.920
0.426,0.307,-0.631,28.381,282.166,-2.014
0.479,0.310,-1.042,20.813,238.342,-5.127
0.472,0.240,-1.302,13.184,156.555,-15.991
0.305,0.453,-0.925,-13.428,36.926,-28.198
0.117,0.485,-0.184,-28.198,-80.444,-39.612
-0.177,0.593,0.760,-30.273,-172.668,-48.340
-0.167,0.558,1.781,-41.809,-221.985,-55.847
-0.297,0.490,3.022,-82.520,-232.605,-55.786
-0.330,0.658,3.711,-72.693,-166.626,-45.898
-0.386,0.575,3.550,1.831,-28.015,-48.035
-0.388,0.369,2.672,55.054,118.164,-55.603
-0.337,0.215,1.633,82.214,205.200,-59.021
-0.254,0.057,0.974,67.078,225.098,-56.580
-0.086,0.109,0.568,35.583,199.219,-48.706
0.040,0.227,0.477,22.522,153.076,-45.105
0.106,0.125,0.563,19.836,109.985,-52.490
0.158,0.091,0.861,11.169,80.383,-57.617
0.153,0.043,1.104,1.221,74.036,-60.486
0.136,0.025,1.203,-0.854,89.172,-58.777
0.170,0.097,1.121,5.676,113.708,-52.124
0.194,0.142,0.930,14.771,135.071,-46.814
0.200,0.131,0.754,23.804,144.531,-44.006
0.204,0.088,0.644,28.931,142.273,-42.419
0.232,0.045,0.596,30.579,131.714,-41.260
0.245,0.036,0.609,24.658,118.225,-41.626
0.262,0.093,0.678,14.648,105.835,-43.457
0.298,0.137,0.751,7.080,98.267,-47.546
0.327,0.109,0.774,1.343,98.328,-53.467
0.316,0.078,0.748,-0.671,104.370,-56.641
0.302,0.040,0.688,-0.183,110.718,-55.847
0.311,0.018,0.631,0.305,116.028,-52.795
0.337,0.011,0.586,0.122,119.568,-48.462
0.351,0.014,0.579,-1.099,121.704,-44.678
0.362,0.035,0.576,-2.991,122.131,-42.053
0.393,0.055,0.580,-2.747,121.155,-41.443
,,,,,
-0.211,-1.547,0.900,111.694,119.690,57.861
-0.215,-1.528,0.870,101.135,126.465,66.711
-0.223,-1.498,0.797,97.229,131.287,74.646
-0.197,-1.476,0.717,92.468,132.446,81.970
-0.163,-1.500,0.650,93.750,129.456,88.989
-0.159,-1.500,0.619,95.520,124.817,96.802
-0.145,-1.481,0.592,96.313,121.643,105.408
-0.081,-1.550,0.541,96.619,120.239,111.633
-0.066,-1.605,0.425,97.717,120.300,117.920
-0.167,-1.612,0.341,101.318,120.605,124.939
-0.149,-1.648,0.304,115.112,110.229,132.629
-0.075,-1.794,0.300,110.596,103.577,137.024
-0.102,-1.832,0.285,103.577,100.952,145.386
-0.110,-1.948,0.255,110.840,93.201,154.480
-0.081,-1.985,0.229,99.182,85.205,164.917
-0.077,-1.853,0.174,95.398,81.909,177.917
-0.081,-1.667,0.082,92.957,77.515,188.599
-0.034,-1.572,-0.008,103.821,71.411,193.115
0.089,-1.610,-0.159,111.389,65.186,194.702
0.154,-1.663,-0.422,102.844,59.326,200.439
-0.001,-1.301,-0.281,42.603,61.401,203.552
-0.014,-1.234,-0.352,73.914,50.293,203.613
0.082,-1.665,-0.228,84.778,17.761,192.505
0.040,-1.884,-0.208,64.453,0.183,199.524
-0.052,-1.711,-0.121,49.316,-5.066,213.257
-0.009,-1.503,-0.091,45.654,-3.967,218.872
0.131,-1.463,-0.050,46.631,-4.028,212.524
0.247,-1.398,-0.080,49.500,-0.977,205.444
0.211,-1.236,-0.146,62.073,1.953,200.439
0.146,-1.107,-0.256,62.195,3.601,195.007
0.104,-1.074,-0.331,53.955,7.202,189.209
0.234,-1.153,-0.458,66.772,8.972,182.556
0.385,-1.228,-0.649,81.482,8.728,177.124
0.329,-0.812,-0.625,86.975,-10.193,178.833
0.002,-1.328,-0.602,59.509,-25.635,174.744
0.100,-1.500,-0.638,27.466,-31.189,181.335
0.210,-1.365,-0.379,73.914,-58.533,189.148
0.258,-1.033,-0.479,81.665,-81.604,198.669
0.225,-0.918,-0.467,58.960,-82.642,200.256
0.081,-1.051,-0.520,42.786,-80.811,193.420
0.146,-1.096,-0.463,40.527,-80.139,183.411
0.260,-0.784,-0.527,40.894,-77.637,179.382
0.289,-0.486,-0.606,26.123,-80.750,174.072
0.263,-0.494,-0.663,35.767,-88.501,159.424
0.245,-0.677,-0.691,48.950,-99.121,147.095
0.196,-0.807,-0.768,52.856,-116.455,143.433
0.127,-0.763,-0.707,51.697,-135.864,145.996
0.026,-0.673,-0.585,44.373,-147.888,147.461
0.089,-0.658,-0.609,27.527,-152.222,144.104
0.100,-0.613,-0.524,20.630,-155.945,141.113
0.055,-0.584,-0.502,19.165,-160.034,138.123
0.003,-0.528,-0.461,5.859,-159.363,133.728
-0.050,-0.485,-0.458,12.939,-157.410,127.380
-0.056,-0.438,-0.505,11.536,-152.710,120.911
-0.062,-0.412,-0.553,4.211,-148.682,114.929
-0.074,-0.409,-0.616,-6.592,-150.635,112.488
-0.123,-0.447,-0.619,-7.629,-158.142,113.220
-0.171,-0.466,-0.662,-17.944,-166.870,114.868
-0.180,-0.341,-0.624,-35.583,-175.049,118.591
-0.179,-0.296,-0.634,-42.786,-179.871,118.408
-0.171,-0.328,-0.621,-47.485,-181.152,116.394
-0.132,-0.322,-0.707,-53.162,-181.763,118.042
-0.111,-0.223,-0.727,-58.105,-186.462,122.559
-0.099,-0.123,-0.786,-53.162,-196.350,125.427
-0.141,-0.056,-0.745,-43.701,-209.229,125.610
-0.163,0.075,-0.655,-31.982,-223.938,124.146
-0.154,0.083,-0.505,-16.418,-238.708,118.286
-0.131,-0.063,-0.396,5.310,-251.831,111.633
-0.165,-0.182,-0.306,17.944,-258.667,112.305
-0.226,-0.179,-0.248,21.790,-261.414,116.455
-0.253,-0.058,-0.224,12.695,-263.428,121.765
-0.338,0.006,-0.151,13.672,-268.372,122.498
-0.393,0.106,-0.034,12.817,-277.954,123.047
-0.441,0.155,0.132,13.184,-287.903,123.291
-0.532,0.066,0.305,21.851,-294.983,124.023
-0.559,0.099,0.437,19.775,-299.255,127.625
-0.796,0.090,0.662,8.301,-303.162,132.019
-0.561,0.001,0.760,-3.479,-297.607,140.747
-0.669,0.368,0.947,-14.709,-294.617,154.968
-0.722,0.644,1.164,-36.560,-288.208,151.611
-0.790,0.558,1.293,-24.414,-278.992,132.751
-0.844,0.463,1.472,-25.330,-268.127,118.225
-1.001,0.552,1.671,-37.109,-260.132,115.173
-1.177,0.774,1.923,-47.913,-257.263,116.577
-1.262,1.058,2.274,-62.744,-257.629,113.403
-1.436,1.269,2.705,-63.171,-263.184,103.088
-1.586,1.305,3.463,-64.697,-267.151,89.233
-1.430,1.653,4.000,-94.421,-240.845,76.294
-1.426,1.827,4.000,-71.594,-150.757,45.593
-1.061,1.223,3.990,-37.048,5.432,4.395
-0.540,1.059,2.707,-4.028,166.443,-8.057
-0.178,0.817,1.403,15.503,269.958,-13.672
0.220,0.415,0.428,21.362,313.965,-19.714
0.535,0.216,-0.490,27.649,326.172,-14.404
0.734,0.074,-1.388,52.002,303.345,-9.094
0.702,-0.217,-2.161,53.772,230.164,-7.874
0.539,-0.018,-2.209,11.414,103.027,-5.127
0.249,0.132,-1.506,-4.333,-56.885,-6.470
-0.063,0.079,-0.219,-4.089,-207.703,-14.771
-0.462,0.417,1.140,-25.269,-313.660,-17.395
-0.561,0.590,2.457,-62.195,-352.295,-22.705
-0.640,0.604,3.773,-98.145,-335.205,-20.874
-0.616,0.850,4.000,-57.922,-227.356,-11.047
-0.562,0.607,3.845,13.855,-38.818,-22.034
-0.504,0.295,2.515,70.190,138.916,-34.363
-0.321,0.181,1.288,80.139,230.957,-30.029
-0.093,-0.045,0.574,53.894,246.460,-24.902
0.079,0.023,0.022,29.663,218.384,-13.916
0.160,0.230,-0.179,14.160,164.734,-12.390
0.196,0.256,-0.153,11.047,97.656,-20.813
0.204,0.208,0.217,9.583,33.203,-30.518
0.181,0.238,0.699,8.057,-11.108,-34.119
0.154,0.359,1.140,12.024,-30.151,-33.325
0.103,0.365,1.464,14.038,-23.437,-36.194
0.050,0.291,1.612,15.747,2.197,-39.673
0.025,0.348,1.575,13.062,37.598,-37.598
-0.010,0.341,1.390,12.024,71.960,-37.415
-0.018,0.273,1.160,16.663,93.933,-38.147
0.006,0.276,0.993,18.860,101.563,-35.767
,,,,,
-0.479,-1.106,1.237,85.388,39.490,20.935
-0.467,-1.156,1.238,85.938,54.443,26.550
-0.482,-1.176,1.256,85.144,67.993,32.043
-0.453,-1.189,1.266,88.806,79.956,37.537
-0.428,-1.217,1.274,96.558,91.492,42.236
-0.402,-1.232,1.276,106.750,101.196,47.363
-0.375,-1.255,1.310,115.234,109.619,52.979
-0.349,-1.344,1.320,121.887,119.141,58.411
-0.330,-1.405,1.305,123.718,129.761,66.406
-0.324,-1.370,1.246,120.911,141.113,76.050
-0.314,-1.475,1.115,116.089,152.039,82.947
-0.281,-1.519,0.963,109.741,158.813,91.370
-0.285,-1.620,0.906,107.544,157.654,99.976
-0.243,-1.761,0.858,102.295,155.090,108.643
-0.253,-1.722,0.956,87.341,155.396,118.469
-0.182,-1.588,0.936,88.379,147.583,131.409
-0.199,-1.568,0.906,81.360,151.306,136.658
-0.217,-1.700,0.753,102.966,151.978,141.479
-0.185,-1.767,0.587,123.108,142.578,153.687
-0.308,-1.671,0.561,131.042,130.737,168.762
-0.321,-1.676,0.405,156.128,118.408,184.082
-0.237,-1.804,0.226,196.594,115.784,193.176
0.006,-1.307,0.146,229.614,97.778,208.374
0.206,-0.770,0.078,188.843,79.590,213.989
0.111,-1.058,0.304,109.192,75.134,198.059
-0.018,-1.887,0.207,37.598,74.036,173.889
-0.400,-2.061,0.319,2.197,95.581,182.068
-0.258,-1.859,0.126,75.378,83.618,206.787
0.026,-1.320,-0.048,102.173,74.707,219.360
0.026,-1.346,-0.205,102.783,73.181,217.224
-0.022,-1.689,-0.197,90.332,56.335,208.557
-0.004,-1.780,-0.226,106.384,31.677,213.928
0.001,-1.557,-0.197,113.098,15.503,225.830
0.061,-1.434,-0.191,100.647,5.127,229.980
0.107,-1.530,-0.152,97.778,-7.690,229.004
0.047,-1.553,-0.107,83.557,-17.273,229.614
0.082,-1.389,-0.127,63.477,-18.860,230.164
0.147,-1.187,-0.078,57.617,-19.226,229.004
0.162,-1.034,-0.101,57.739,-18.127,226.379
0.318,-0.588,-0.162,63.843,-15.747,216.431
0.081,-1.114,-0.245,42.664,-8.789,195.496
0.301,-1.119,-0.322,40.833,-6.409,176.880
0.428,-0.890,-0.402,83.191,-15.808,177.734
0.300,-0.826,-0.405,58.960,-34.302,182.190
0.188,-0.982,-0.383,87.830,-52.002,180.908
0.106,-1.060,-0.464,104.126,-62.683,184.509
0.014,-1.033,-0.479,82.581,-66.528,191.528
0.121,-0.866,-0.512,62.073,-63.782,188.843
0.249,-0.680,-0.495,37.903,-64.880,177.124
0.318,-0.597,-0.510,40.710,-76.050,162.476
0.261,-0.687,-0.494,40.894,-87.952,149.780
0.227,-0.790,-0.537,40.405,-96.741,144.226
0.099,-0.874,-0.566,38.208,-101.929,145.264
-0.031,-0.824,-0.606,16.541,-101.074,149.780
-0.038,-0.746,-0.681,-7.690,-95.459,150.452
0.061,-0.658,-0.753,-19.104,-92.834,147.095
0.117,-0.585,-0.806,-23.987,-99.976,144.348
0.119,-0.527,-0.798,-25.818,-113.037,141.602
0.086,-0.496,-0.771,-20.386,-126.038,138.062
0.054,-0.442,-0.733,-16.052,-137.878,133.423
0.009,-0.467,-0.689,-17.395,-146.545,127.502
-0.017,-0.547,-0.668,-18.555,-151.917,122.986
-0.019,-0.564,-0.647,-22.644,-154.419,124.451
-0.029,-0.525,-0.653,-30.212,-154.541,130.310
-0.057,-0.603,-0.730,-30.029,-151.794,136.292
-0.058,-0.710,-0.874,-26.184,-145.874,141.724
-0.036,-0.570,-1.029,-28.870,-146.057,150.391
-0.079,-0.282,-1.125,-29.053,-159.668,158.447
-0.136,-0.039,-1.101,-16.235,-188.293,157.288
-0.208,0.065,-0.889,4.517,-225.281,148.132
-0.251,0.045,-0.574,26.428,-263.123,137.573
-0.304,0.041,-0.180,39.612,-289.978,130.981
-0.298,0.105,0.159,39.490,-304.016,128.357
-0.296,0.208,0.474,30.762,-309.204,126.709
-0.325,0.370,0.766,14.832,-307.373,124.939
-0.431,0.338,1.055,-7.385,-296.814,121.521
-0.314,0.342,1.228,-28.687,-271.301,128.662
-0.334,0.678,1.294,-36.987,-243.042,140.076
-0.234,0.660,1.262,-34.302,-202.942,131.531
-0.152,0.409,1.004,-4.089,-160.278,117.737
-0.019,0.292,0.743,-2.686,-126.648,115.234
0.018,0.393,0.494,-12.634,-107.422,120.483
0.056,0.454,0.262,-9.583,-103.821,121.094
0.023,0.363,0.060,4.089,-114.197,114.197
-0.087,0.332,0.083,9.888,-139.648,106.873
-0.169,0.309,0.183,11.108,-170.837,101.196
-0.167,0.277,0.444,14.832,-195.618,96.619
-0.114,0.139,0.608,12.268,-204.956,92.590
-0.119,0.104,0.762,4.395,-197.144,90.515
-0.076,0.140,0.784,-13.184,-180.176,89.844
-0.098,0.136,0.723,-21.912,-158.325,88.440
-0.190,0.187,0.592,-27.649,-144.165,89.661
-0.327,0.233,0.614,-29.541,-145.142,92.102
-0.455,0.395,0.683,-26.306,-162.292,96.863
-0.605,0.637,0.993,-24.048,-192.139,100.037
-0.750,0.769,1.359,-17.334,-228.516,94.666
-0.932,0.739,1.885,-16.357,-263.184,83.252
-0.981,0.634,2.609,-32.043,-285.706,73.730
-1.200,0.885,3.451,-77.942,-280.273,74.768
-1.006,1.151,4.000,-77.271,-211.731,69.397
-0.781,1.059,3.893,-62.317,-80.078,46.936
-0.619,0.820,2.947,-21.912,71.167,23.193
-0.358,0.751,1.761,6.165,174.194,15.320
-0.134,0.558,0.919,8.789,216.187,10.925
0.123,0.577,0.305,-17.700,210.022,11.353
0.245,0.641,-0.128,-22.705,175.415,6.531
0.275,0.560,-0.347,-1.831,113.892,-2.808
0.254,0.432,-0.230,3.235,37.781,-11.536
0.277,0.387,0.181,2.441,-24.170,-19.653
0.258,0.284,0.661,1.282,-63.965,-25.452
0.204,0.315,1.133,-1.953,-80.688,-26.672
0.062,0.406,1.529,-8.789,-78.796,-25.146
-0.063,0.467,1.836,-17.883,-62.561,-25.757
-0.135,0.575,2.018,-22.705,-34.119,-26.550
-0.177,0.633,2.028,-13.062,-0.488,-29.358
-0.197,0.569,1.896,4.822,32.532,-33.264
-0.196,0.512,1.681,17.212,58.411,-35.645
-0.174,0.454,1.483,20.935,74.219,-36.865
-0.123,0.389,1.340,19.348,81.787,-38.086
,,,,,
-0.308,-1.570,0.892,257.568,104.858,95.398
-0.263,-2.142,0.409,228.394,143.066,106.873
-0.552,-1.512,0.382,210.754,165.466,130.249
-0.342,-1.540,0.030,152.832,139.526,145.752
-0.277,-1.304,0.326,99.304,122.925,140.686
-0.144,-1.523,0.140,114.014,90.881,132.263
-0.036,-1.825,0.330,137.939,74.890,125.000
0.025,-2.243,0.138,96.436,75.317,129.456
-0.199,-1.740,0.438,53.833,67.810,164.551
-0.363,-1.431,0.546,72.083,64.514,183.594
-0.205,-1.646,0.719,120.789,58.960,191.589
0.004,-2.054,0.555,101.196,66.406,187.805
-0.053,-2.111,0.470,90.698,91.309,195.007
-0.150,-1.802,0.196,103.027,98.022,203.979
-0.096,-1.772,-0.006,77.759,94.482,209.656
-0.241,-2.055,-0.188,46.082,105.408,210.266
-0.312,-2.218,-0.320,124.023,98.999,217.712
-0.031,-1.711,-0.497,134.827,62.988,234.680
-0.061,-1.345,-0.434,100.830,30.396,240.417
-0.120,-1.658,-0.446,91.370,6.958,229.004
-0.125,-1.854,-0.359,90.759,-11.536,223.694
-0.108,-1.566,-0.332,84.351,-24.719,231.628
-0.029,-1.300,-0.293,63.293,-30.823,232.910
0.056,-1.309,-0.279,55.115,-33.813,221.497
0.081,-1.359,-0.307,52.856,-36.011,209.595
0.052,-1.299,-0.386,40.405,-38.635,203.064
0.002,-1.200,-0.487,25.696,-42.480,199.646
-0.043,-1.180,-0.555,14.038,-49.194,195.740
0.004,-1.117,-0.569,2.136,-59.021,193.298
0.072,-0.907,-0.511,-8.484,-70.740,192.932
0.091,-0.773,-0.394,-11.475,-81.665,187.317
0.107,-0.934,-0.302,-10.132,-87.463,177.307
0.097,-1.009,-0.270,-6.104,-86.548,173.767
0.152,-0.846,-0.241,-12.146,-82.947,176.514
0.180,-0.721,-0.254,-18.188,-75.439,175.598
0.167,-0.895,-0.313,-5.188,-66.162,167.419
0.159,-1.003,-0.457,4.578,-57.678,163.574
0.184,-0.937,-0.594,6.104,-53.833,168.091
0.122,-0.980,-0.768,12.573,-57.251,171.875
0.091,-1.090,-0.861,10.864,-67.627,172.791
0.109,-1.025,-0.886,4.944,-84.473,176.147
0.129,-0.880,-0.840,-8.362,-103.943,178.467
0.076,-0.915,-0.777,-18.494,-117.920,174.866
0.042,-0.906,-0.668,-23.376,-123.352,173.035
0.074,-0.789,-0.648,-28.198,-122.742,176.697
0.112,-0.739,-0.643,-25.696,-120.361,181.152
0.106,-0.697,-0.711,-15.564,-120.789,186.218
0.095,-0.616,-0.743,-7.385,-125.732,189.758
0.049,-0.599,-0.772,-1.465,-134.033,189.392
0.003,-0.490,-0.738,3.540,-145.752,189.514
-0.027,-0.433,-0.672,8.606,-159.485,188.843
-0.063,-0.485,-0.622,6.714,-169.128,186.096
-0.096,-0.487,-0.554,6.653,-175.903,186.890
-0.102,-0.386,-0.520,0.732,-181.091,189.697
-0.084,-0.267,-0.454,-4.028,-182.922,189.758
-0.096,-0.178,-0.461,-6.958,-180.725,186.035
-0.130,-0.103,-0.502,-5.493,-179.871,182.190
-0.172,-0.078,-0.538,5.310,-182.678,180.054
-0.218,-0.103,-0.599,16.907,-190.308,179.810
-0.258,-0.030,-0.582,26.917,-204.346,181.213
-0.289,0.089,-0.533,27.893,-222.595,181.396
-0.349,0.097,-0.418,32.776,-241.882,177.490
-0.419,0.081,-0.288,34.668,-259.949,173.523
-0.470,0.218,-0.105,30.884,-273.743,171.936
-0.533,0.377,0.089,26.306,-281.250,168.640
-0.587,0.370,0.224,29.968,-280.701,160.767
-0.730,0.249,0.288,32.898,-272.949,153.748
-0.597,0.210,0.228,23.804,-261.230,156.494
-0.602,0.310,0.210,12.451,-257.507,165.955
-0.780,0.391,0.277,0.061,-262.085,166.138
-0.816,0.564,0.438,-11.230,-270.386,159.973
-0.909,0.830,0.716,-27.649,-288.818,152.222
-1.117,1.056,1.084,-35.339,-315.674,139.893
-1.352,1.255,1.532,-42.969,-345.154,125.366
-1.586,1.410,2.131,-55.420,-369.019,110.596
-1.685,1.575,3.026,-76.782,-386.414,95.764
-1.504,1.776,3.993,-113.342,-364.746,83.557
-1.092,1.645,4.000,-75.745,-263.489,64.026
-0.803,1.331,3.891,-19.348,-68.848,35.339
-0.697,0.914,2.545,40.771,104.553,11.475
-0.385,0.561,1.411,48.950,191.528,8.118
-0.084,0.410,0.621,61.096,222.351,11.169
0.217,0.297,0.017,45.471,215.149,12.146
0.355,0.196,-0.434,52.002,184.448,6.226
0.284,0.071,-0.736,46.753,119.507,0.244
0.092,0.237,-0.586,5.371,24.292,-0.854
-0.072,0.588,0.047,-33.325,-74.097,-6.165
-0.205,0.816,0.910,-51.208,-152.100,-19.958
-0.223,0.816,1.734,-76.050,-194.092,-34.546
-0.308,0.899,2.826,-134.827,-200.134,-38.208
-0.244,1.044,3.397,-87.402,-142.822,-33.630
-0.158,0.741,3.133,-6.836,-15.442,-44.128
-0.122,0.390,2.210,51.270,120.178,-54.199
-0.044,0.201,1.176,82.520,199.646,-48.950
0.092,0.070,0.471,74.158,219.360,-40.039
0.237,0.073,0.006,42.358,195.618,-33.325
0.332,0.139,-0.174,25.085,145.325,-32.837
0.319,0.188,-0.113,16.113,81.299,-37.964
0.287,0.324,0.250,-2.075,18.311,-41.443
0.243,0.386,0.762,-7.019,-29.175,-46.692
0.198,0.369,1.283,-17.639,-52.856,-50.659
0.157,0.440,1.758,-45.288,-46.082,-49.438
0.122,0.590,1.988,-39.490,-11.292,-45.715
0.089,0.551,1.891,-10.071,40.649,-49.072
0.078,0.436,1.549,18.982,90.210,-53.406
0.082,0.396,1.142,28.870,121.948,-53.162
0.106,0.371,0.832,27.344,132.629,-52.673
0.149,0.311,0.628,21.667,125.488,-53.894
0.199,0.278,0.581,17.212,108.215,-54.443
0.242,0.267,0.652,14.587,89.478,-54.199
0.279,0.260,0.799,13.184,76.477,-54.138
0.296,0.234,0.932,13.367,73.303,-55.176
0.311,0.226,0.992,15.747,79.773,-55.115
0.326,0.217,0.949,19.897,91.309,-54.321
0.327,0.160,0.832,24.170,103.027,-53.955
0.322,0.128,0.697,23.865,111.511,-52.551
0.335,0.159,0.593,18.311,114.136,-50.903
0.359,0.228,0.531,13.245,111.450,-51.392
0.378,0.242,0.512,11.780,104.553,-54.626
,,,,,
-0.557,-0.955,1.180,52.795,56.946,18.616
-0.553,-0.999,1.175,55.847,69.519,21.423
-0.556,-1.059,1.154,60.547,80.505,24.658
-0.558,-1.112,1.137,67.139,89.294,28.503
-0.552,-1.140,1.132,73.669,96.802,33.630
-0.537,-1.162,1.128,78.796,103.577,38.879
-0.529,-1.208,1.116,83.008,111.023,44.006
-0.515,-1.260,1.089,85.876,118.286,49.500
-0.503,-1.290,1.072,87.830,123.779,56.458
-0.506,-1.321,1.053,88.013,127.747,64.270
-0.488,-1.352,1.045,86.914,131.531,72.449
-0.496,-1.347,1.048,88.989,135.803,81.299
-0.502,-1.378,1.013,90.759,140.808,89.966
-0.494,-1.431,0.975,95.215,146.118,98.328
-0.481,-1.451,0.913,103.027,149.841,109.009
-0.468,-1.464,0.891,111.023,150.513,119.751
-0.429,-1.511,0.859,118.103,148.743,130.127
-0.388,-1.577,0.834,120.728,148.193,140.442
-0.396,-1.672,0.800,119.934,150.208,149.719
-0.444,-1.594,0.735,115.967,152.649,159.851
-0.441,-1.584,0.625,112.427,154.114,169.250
-0.380,-1.697,0.523,114.746,152.954,174.927
-0.308,-1.813,0.287,111.572,152.466,183.594
-0.371,-1.642,0.274,97.839,146.667,192.993
-0.318,-1.481,0.182,106.445,125.122,203.491
-0.251,-1.500,0.245,115.051,108.093,204.895
-0.249,-1.637,0.190,124.512,98.511,208.252
-0.249,-1.701,0.227,132.935,88.257,217.896
-0.178,-1.715,0.177,137.817,80.933,229.248
-0.193,-1.622,0.167,145.691,74.036,243.103
-0.168,-1.647,0.056,149.841,69.275,248.779
-0.119,-1.595,-0.015,155.151,67.871,253.845
-0.052,-1.323,-0.081,166.565,55.664,259.949
0.077,-0.944,-0.120,162.781,41.626,258.484
0.191,-0.796,-0.222,154.785,33.325,245.239
0.181,-1.015,-0.189,127.686,27.283,229.370
0.197,-1.250,-0.268,140.625,15.625,220.520
0.236,-1.317,-0.256,166.748,0.305,221.252
0.309,-1.256,-0.459,128.967,-10.010,229.370
0.177,-1.083,-0.313,52.246,-11.841,234.802
0.125,-0.945,-0.315,83.557,-24.841,233.521
0.327,-1.024,-0.343,133.484,-44.983,219.849
0.254,-0.808,-0.240,105.469,-50.171,218.689
0.165,-0.996,-0.264,66.956,-39.307,207.886
0.396,-0.865,-0.372,98.999,-39.917,200.989
0.380,-0.582,-0.361,134.399,-46.997,195.129
0.339,-0.581,-0.307,132.874,-62.744,187.195
0.322,-0.645,-0.300,140.503,-79.163,179.321
0.420,-0.789,-0.249,143.372,-93.811,175.903
0.438,-0.961,-0.318,127.625,-98.450,176.880
0.305,-1.097,-0.257,120.361,-95.581,180.603
0.254,-1.020,-0.405,96.313,-89.783,187.256
0.081,-0.935,-0.439,58.228,-82.031,191.223
0.160,-0.754,-0.637,23.621,-70.801,186.218
0.259,-0.510,-0.789,5.920,-68.726,177.063
0.234,-0.404,-0.890,-18.005,-83.191,164.246
0.265,-0.197,-0.955,-28.015,-109.924,150.696
0.337,-0.011,-0.881,-30.090,-134.705,136.658
0.289,-0.084,-0.795,-11.353,-159.180,121.033
0.207,-0.250,-0.645,7.324,-176.208,107.178
0.180,-0.296,-0.529,16.052,-184.509,101.379
0.171,-0.152,-0.407,20.447,-184.631,102.112
0.166,-0.101,-0.392,25.513,-179.504,99.915
0.180,-0.296,-0.406,40.039,-173.462,91.980
0.164,-0.495,-0.487,46.814,-170.959,87.097
0.141,-0.560,-0.545,32.410,-170.715,89.722
0.135,-0.428,-0.613,4.822,-171.265,96.985
0.144,-0.238,-0.633,-12.512,-178.345,101.868
0.097,-0.222,-0.666,-13.184,-190.735,98.389
0.010,-0.289,-0.663,-7.019,-203.430,91.553
-0.045,-0.224,-0.608,-11.902,-213.928,88.379
-0.052,-0.113,-0.519,-21.057,-222.473,87.524
-0.076,-0.141,-0.424,-18.372,-226.257,86.975
-0.091,-0.183,-0.396,-10.071,-225.342,90.637
-0.051,-0.211,-0.438,-8.850,-221.008,96.680
-0.084,-0.325,-0.612,-5.676,-215.698,103.333
-0.203,-0.386,-0.782,-4.089,-216.431,110.718
-0.298,-0.192,-0.880,-19.836,-228.699,118.774
-0.455,-0.111,-0.848,-27.283,-253.113,120.056
-0.563,-0.370,-0.739,-28.137,-279.846,118.286
-0.588,-0.220,-0.529,-45.837,-299.561,127.380
-0.554,0.489,-0.243,-75.195,-314.148,139.526
-0.552,0.815,0.018,-70.435,-331.360,133.484
-0.850,0.807,0.350,-44.006,-362.915,116.211
-1.263,0.694,0.903,-33.508,-409.912,103.149
-1.815,1.010,1.660,-53.528,-466.858,104.492
-2.085,1.452,2.879,-123.840,-517.334,111.084
-2.003,1.591,4.000,-153.564,-532.043,105.957
-1.297,1.597,4.000,-133.057,-428.528,84.167
-0.514,1.338,3.998,-64.575,-163.086,52.429
-0.283,0.707,2.291,2.075,109.619,17.822
-0.062,0.154,0.722,29.968,235.474,12.695
0.167,0.423,-0.337,34.302,253.174,37.476
0.164,0.486,-1.295,43.457,216.431,37.659
0.105,0.087,-1.856,33.203,110.657,22.217
-0.122,0.311,-1.519,3.601,-50.537,16.602
-0.640,0.500,-0.347,-13.306,-223.389,12.817
-0.794,0.418,0.987,-16.174,-350.281,9.521
-0.756,0.265,2.352,-48.767,-405.823,11.841
-0.823,0.662,3.692,-137.512,-393.738,33.203
-0.646,1.232,4.000,-86.670,-278.931,44.373
-0.594,0.913,3.800,-20.996,-75.134,12.817
-0.557,0.493,2.567,49.805,109.619,-13.550
-0.383,0.312,1.342,62.866,201.477,-13.123
-0.136,0.187,0.623,54.504,210.876,-5.066
-0.009,0.128,0.126,26.550,175.171,-0.427
0.123,0.186,-0.089,10.132,116.577,0.671
0.194,0.276,0.005,-12.634,51.086,-0.977
0.162,0.485,0.413,-26.001,-8.728,-3.418
0.079,0.685,0.950,-33.264,-50.110,-9.216
0.012,0.729,1.557,-28.015,-70.984,-16.846
-0.068,0.733,2.004,-23.376,-64.758,-20.264
-0.091,0.704,2.224,0.732,-28.442,-22.522
-0.104,0.533,1.991,29.907,27.588,-26.611
-0.034,0.360,1.545,46.814,81.116,-29.297
0.059,0.244,1.025,45.044,113.220,-28.381
0.129,0.147,0.682,31.433,117.188,-27.283
0.178,0.098,0.477,16.724,101.074,-26.550
0.201,0.161,0.495,4.944,72.754,-25.940
,,,,,
-0.527,-1.025,0.984,59.326,55.847,29.480
-0.512,-1.061,0.999,69.458,65.002,33.325
-0.500,-1.092,1.006,78.369,73.242,37.659
-0.486,-1.109,1.001,85.144,81.177,42.480
-0.459,-1.148,0.990,88.135,88.440,46.997
-0.446,-1.165,0.989,88.928,94.238,51.575
-0.424,-1.199,0.991,88.623,99.304,56.213
-0.413,-1.225,0.975,87.769,103.882,60.486
-0.380,-1.276,0.949,84.351,106.995,65.125
-0.379,-1.270,0.900,81.421,108.765,71.655
-0.371,-1.268,0.902,82.703,108.459,77.148
-0.378,-1.263,0.881,85.571,107.849,83.374
-0.367,-1.297,0.826,86.060,106.689,90.027
-0.323,-1.281,0.775,91.614,105.652,98.083
-0.266,-1.214,0.771,102.173,104.126,106.262
-0.233,-1.215,0.773,113.708,104.736,110.168
-0.256,-1.342,0.756,120.300,109.131,112.183
-0.273,-1.478,0.643,121.033,115.234,117.676
-0.226,-1.562,0.605,119.995,114.502,125.183
-0.250,-1.641,0.610,120.544,109.619,131.836
-0.272,-1.567,0.622,119.202,103.821,140.808
-0.193,-1.538,0.616,121.277,100.525,148.254
-0.192,-1.764,0.570,117.615,101.685,153.931
-0.188,-1.500,0.529,114.868,103.271,166.870
-0.108,-1.423,0.402,117.859,97.961,176.575
-0.080,-1.509,0.444,134.521,93.018,176.697
-0.094,-1.662,0.252,150.757,90.210,182.983
-0.105,-1.948,0.018,139.526,92.346,194.092
-0.310,-1.764,-0.110,126.099,100.647,209.839
-0.165,-1.386,-0.352,120.972,77.759,224.365
-0.134,-1.377,-0.171,80.322,66.650,217.529
-0.202,-1.578,-0.236,66.040,48.340,210.388
-0.197,-1.827,0.061,68.665,26.489,202.454
-0.156,-1.721,0.159,66.895,19.897,210.876
-0.016,-1.661,0.147,81.238,20.691,218.140
0.075,-1.174,0.311,103.516,40.039,219.727
0.090,-1.210,0.069,207.825,41.748,215.454
0.161,-1.268,-0.086,193.726,33.203,207.458
-0.008,-1.637,-0.314,129.700,36.438,210.144
-0.280,-1.995,-0.437,92.407,42.053,224.365
-0.149,-1.821,-0.557,88.806,39.368,239.624
0.122,-1.367,-0.501,97.656,22.888,246.765
0.264,-1.055,-0.418,89.294,5.554,238.464
0.225,-1.083,-0.349,80.566,-11.536,219.543
0.248,-1.153,-0.416,82.642,-22.034,205.688
0.207,-0.846,-0.452,75.989,-29.419,203.796
-0.027,-1.167,-0.574,47.852,-24.963,200.012
0.038,-1.041,-0.713,52.551,-9.521,184.509
0.233,-0.932,-0.924,104.187,-7.874,180.847
0.232,-1.031,-0.923,96.069,-58.899,183.533
0.179,-1.113,-0.924,96.436,-101.379,190.063
-0.058,-1.133,-0.918,86.487,-133.789,204.651
-0.113,-0.898,-0.735,32.166,-149.780,212.219
0.009,-0.494,-0.804,29.297,-151.489,206.604
0.150,-0.363,-0.621,34.790,-161.987,183.655
0.156,-0.487,-0.521,46.326,-169.861,160.339
0.164,-0.586,-0.452,40.527,-173.706,149.780
0.141,-0.600,-0.393,39.063,-169.861,148.254
0.092,-0.548,-0.429,29.541,-161.743,150.635
0.091,-0.512,-0.456,30.029,-152.710,151.001
0.081,-0.545,-0.643,32.776,-147.400,150.940
0.027,-0.592,-0.711,31.921,-150.635,151.428
-0.010,-0.553,-0.817,35.095,-159.180,151.550
-0.032,-0.445,-0.739,24.963,-175.598,150.513
-0.046,-0.448,-0.657,27.954,-191.956,144.287
-0.090,-0.469,-0.524,22.583,-204.407,139.099
-0.106,-0.386,-0.406,12.939,-210.754,135.925
-0.126,-0.277,-0.276,-5.005,-207.642,131.897
-0.109,-0.202,-0.239,-18.066,-196.472,126.160
-0.063,-0.193,-0.283,-23.315,-181.091,120.361
-0.016,-0.268,-0.392,-24.231,-168.518,117.188
-0.036,-0.291,-0.575,-25.879,-163.147,120.178
-0.059,-0.142,-0.680,-32.104,-169.189,128.784
-0.101,-0.002,-0.703,-28.442,-183.960,133.972
-0.135,0.011,-0.648,-11.536,-204.956,132.446
-0.156,0.021,-0.534,2.991,-226.501,129.761
-0.158,0.083,-0.332,14.954,-245.361,127.197
-0.182,0.080,-0.157,24.963,-256.592,124.084
-0.198,0.114,-0.000,27.588,-263.367,123.718
-0.288,0.170,0.171,29.419,-262.756,123.840
-0.342,0.100,0.217,28.320,-253.662,123.779
-0.302,0.089,0.225,23.132,-243.347,131.104
-0.358,0.247,0.203,20.935,-242.126,136.536
-0.421,0.247,0.237,18.982,-242.310,131.531
-0.476,0.163,0.274,21.729,-243.774,124.573
-0.308,0.167,0.344,18.066,-246.338,124.023
-0.370,0.290,0.428,4.944,-246.216,125.488
-0.445,0.455,0.450,-0.305,-243.713,122.253
-0.489,0.317,0.493,0.671,-241.272,109.741
-0.575,0.099,0.534,3.723,-241.394,100.159
-0.687,0.105,0.645,-13.367,-243.774,104.797
-0.721,0.039,0.790,-28.503,-240.845,113.708
-0.758,-0.008,0.905,-46.509,-231.140,125.732
-0.736,0.332,1.082,-77.881,-225.830,143.433
-0.898,0.894,1.362,-111.755,-238.770,153.015
-1.087,1.285,1.772,-122.437,-274.109,142.212
-1.751,1.710,2.677,-121.704,-333.374,120.789
-2.169,1.999,3.968,-133.972,-395.935,97.168
-2.018,2.142,4.000,-121.338,-388.672,81.177
-1.467,1.751,4.000,-51.941,-221.008,54.749
-1.112,1.487,3.981,57.739,110.779,20.813
-0.743,1.169,2.059,109.619,322.266,-5.310
-0.274,0.790,0.701,114.136,385.559,-13.245
0.179,0.662,-0.234,114.807,393.860,-10.193
0.417,0.736,-1.172,115.234,373.840,-9.583
0.455,0.050,-2.178,111.877,329.346,-18.921
0.575,-0.281,-2.828,47.913,226.379,-22.705
0.404,0.348,-2.480,1.587,46.753,-14.099
0.077,0.575,-1.288,-47.302,-141.785,-23.865
-0.266,0.545,0.296,-56.885,-291.321,-48.279
-0.326,0.703,1.564,-90.210,-366.638,-60.852
-0.568,0.788,3.341,-142.395,-390.625,-57.373
-0.624,1.005,4.000,-151.855,-325.378,-43.823
-0.596,0.786,4.000,-13.306,-151.306,-44.495
-0.599,0.403,3.300,71.167,80.078,-59.021
-0.542,0.228,1.846,119.446,213.501,-59.326
-0.385,0.022,0.962,102.295,251.526,-53.345
-0.147,0.008,0.379,61.829,227.051,-44.067
-0.004,0.260,0.221,14.954,174.622,-38.635
