aX,aY,aZ,gX,gY,gZ
-0.514,-0.731,1.391,2.441,23.682,35.339
-0.504,-0.746,1.421,1.892,29.114,40.894
-0.535,-0.736,1.422,2.319,37.231,46.692
-0.502,-0.694,1.386,0.305,47.974,51.147
-0.509,-0.652,1.378,-1.038,58.228,54.688
-0.476,-0.658,1.312,8.179,67.383,55.298
-0.436,-0.671,1.333,9.033,75.317,56.641
-0.415,-0.640,1.352,10.803,82.947,58.533
-0.396,-0.631,1.311,15.015,90.332,60.181
-0.372,-0.659,1.284,17.456,96.375,62.744
-0.355,-0.680,1.281,19.226,99.548,65.918
-0.349,-0.705,1.304,21.484,101.563,69.336
-0.329,-0.756,1.323,21.851,102.783,73.059
-0.340,-0.784,1.354,20.203,101.563,78.674
-0.357,-0.743,1.392,16.357,102.844,83.984
-0.367,-0.683,1.400,12.573,107.300,87.952
-0.343,-0.702,1.432,8.057,111.816,90.698
-0.338,-0.779,1.470,1.282,115.906,94.849
-0.344,-0.864,1.528,-9.399,120.789,100.586
-0.374,-0.892,1.571,-17.212,126.038,107.605
-0.395,-0.761,1.573,-22.217,135.742,114.746
-0.379,-0.493,1.507,-25.940,149.536,118.774
-0.347,-0.446,1.408,-25.818,162.231,116.821
-0.324,-0.544,1.381,-21.912,170.044,113.770
-0.314,-0.555,1.448,-17.578,175.110,113.098
-0.310,-0.543,1.506,-10.803,181.519,111.694
-0.324,-0.587,1.511,-8.118,189.575,109.497
-0.346,-0.665,1.479,-12.634,197.388,107.483
-0.362,-0.706,1.479,-19.714,203.857,107.483
-0.344,-0.598,1.493,-22.339,209.900,109.680
-0.349,-0.514,1.459,-24.109,218.445,110.229
-0.336,-0.488,1.403,-33.020,227.539,109.375
-0.374,-0.434,1.351,-39.978,237.488,107.910
-0.390,-0.346,1.263,-39.734,247.314,103.027
-0.337,-0.385,1.199,-39.490,257.263,95.886
-0.341,-0.313,1.157,-31.189,267.029,91.125
-0.290,-0.252,1.127,-22.034,276.367,85.938
-0.254,-0.252,1.098,-8.240,287.292,79.041
-0.290,-0.195,1.001,-6.592,302.307,74.219
-0.242,-0.227,0.825,-4.089,315.613,66.711
-0.221,-0.264,0.707,3.113,323.181,61.035
-0.259,-0.208,0.672,-7.141,329.102,59.387
-0.254,-0.222,0.525,-9.827,337.708,51.880
-0.244,-0.224,0.299,-17.700,345.886,43.579
-0.252,-0.261,0.048,-25.391,348.999,34.180
-0.145,-0.366,-0.155,-26.184,345.642,24.963
-0.118,-0.402,-0.304,-41.077,341.919,22.827
-0.208,-0.496,-0.556,-68.726,340.881,20.691
-0.041,-0.987,-0.651,-103.943,332.397,17.761
0.169,-1.225,-0.682,-151.306,323.120,27.405
0.139,-1.769,-0.831,-126.770,314.880,35.217
0.005,-1.522,-1.200,-105.774,299.194,63.843
-0.230,-1.124,-1.573,-46.143,265.320,82.031
-0.144,-0.869,-1.676,-8.667,219.116,84.045
-0.178,-1.194,-1.402,-6.897,142.639,82.336
-0.100,-1.255,-0.869,11.047,76.721,92.529
0.126,-1.228,-0.751,14.343,48.523,114.014
0.099,-1.210,-0.933,-4.761,27.039,146.545
-0.059,-1.142,-1.046,-7.385,3.540,178.284
-0.041,-0.992,-0.864,3.174,-19.592,199.402
-0.037,-0.743,-0.646,10.925,-40.894,212.097
-0.027,-0.415,-0.507,18.738,-57.068,221.252
0.015,-0.186,-0.411,33.569,-73.975,223.877
0.111,-0.025,-0.041,44.861,-101.135,225.403
0.217,0.537,0.447,44.678,-124.329,232.300
0.254,0.849,0.617,39.124,-137.756,232.300
0.365,1.208,0.703,29.602,-151.184,226.440
0.533,1.393,1.318,46.021,-153.992,210.022
0.677,1.585,1.407,30.640,-118.958,191.772
0.788,1.738,1.409,-58.716,-68.481,179.077
0.782,2.172,1.417,-146.423,-4.578,174.500
0.927,2.880,1.103,-201.599,55.847,150.269
0.973,3.058,0.954,-165.527,83.862,90.027
1.001,3.133,0.980,-117.981,98.022,33.325
1.041,2.859,0.814,-85.144,106.873,-20.447
0.883,2.563,0.544,-38.269,105.713,-74.524
0.734,2.157,0.276,21.851,111.206,-129.578
0.701,1.580,0.463,76.172,121.704,-178.040
0.664,1.133,0.485,59.082,132.690,-202.881
0.553,0.782,0.306,26.306,135.132,-215.820
0.426,0.309,-0.006,32.776,134.521,-234.497
0.368,-0.041,-0.213,52.917,144.592,-248.779
0.394,-0.543,-0.343,56.763,162.170,-255.798
0.385,-1.158,-0.581,36.621,182.434,-245.544
0.299,-1.514,-0.619,23.560,191.956,-217.651
0.113,-1.458,-0.768,39.978,199.402,-184.021
0.198,-1.236,-1.241,55.115,208.923,-160.400
0.365,-1.693,-1.683,36.743,184.631,-141.174
0.377,-2.206,-1.872,24.841,127.441,-106.689
0.365,-2.377,-1.720,17.700,52.551,-54.626
0.390,-2.255,-1.163,8.484,-4.395,0.549
0.398,-2.106,-1.160,-9.033,-24.292,50.781
0.255,-1.908,-1.510,-30.334,-42.480,93.140
0.210,-1.631,-1.426,-18.921,-81.970,128.113
0.216,-1.402,-1.084,5.371,-120.300,155.884
0.167,-1.127,-0.879,22.705,-148.132,179.138
0.161,-0.845,-0.670,41.077,-170.715,196.960
0.225,-0.473,-0.203,62.073,-193.176,210.754
0.330,-0.096,0.194,70.251,-208.435,220.886
0.365,0.315,0.388,49.561,-221.130,228.699
0.437,0.615,0.698,38.940,-238.647,231.140
0.560,0.765,1.111,31.555,-244.629,229.980
0.579,1.089,1.354,-12.329,-224.854,233.032
0.724,1.181,1.702,-75.745,-182.617,231.567
0.731,1.812,1.939,-132.141,-110.352,231.079
0.731,2.964,1.489,-234.741,-15.320,232.422
0.917,3.284,1.142,-277.649,54.199,194.946
0.962,3.648,0.748,-242.981,88.257,132.874
1.066,3.791,0.632,-163.269,102.600,59.631
1.014,3.560,0.492,-75.439,103.271,-20.447
1.050,3.059,0.307,-31.128,99.976,-92.590
0.892,2.437,0.303,12.878,93.018,-152.161
0.803,1.899,0.160,36.560,85.205,-204.102
0.735,1.422,0.241,63.660,75.012,-247.742
0.584,0.990,0.147,84.595,67.444,-286.377
0.421,0.608,0.024,88.562,68.909,-314.636
0.434,0.052,0.036,95.886,79.590,-328.308
0.233,-0.395,-0.243,88.440,95.337,-326.843
0.176,-1.082,-0.411,78.796,111.328,-315.796
,,,,,
0.254,-1.735,-1.185,-20.691,163.208,-141.052
0.297,-1.893,-1.400,-15.808,150.757,-108.948
0.321,-2.052,-1.432,-10.620,117.554,-75.500
0.359,-2.197,-1.459,-9.949,77.820,-36.011
0.427,-2.257,-1.397,-8.301,37.231,8.972
0.466,-2.142,-1.378,-3.357,-3.784,53.589
0.462,-1.952,-1.329,5.432,-42.297,92.407
0.351,-1.712,-1.259,22.339,-77.698,124.756
0.238,-1.414,-1.121,42.542,-108.154,149.536
0.160,-1.150,-0.943,63.416,-132.874,167.847
0.154,-0.903,-0.709,85.144,-153.381,181.213
0.169,-0.653,-0.478,101.990,-170.593,190.857
0.191,-0.320,-0.200,112.854,-186.340,197.876
0.334,-0.009,0.126,116.455,-202.087,203.430
0.401,0.429,0.437,111.023,-217.773,209.961
0.544,0.707,0.810,88.867,-228.516,216.125
0.645,0.978,1.110,51.025,-225.037,222.778
0.736,1.066,1.417,-0.183,-202.820,231.689
0.698,1.288,1.627,-61.279,-158.508,240.540
0.725,2.233,1.585,-135.132,-89.111,246.521
0.680,2.857,1.485,-183.105,-14.832,231.567
0.881,3.204,1.233,-192.932,40.894,189.697
1.068,3.621,0.936,-184.143,77.271,141.113
1.167,3.557,0.667,-156.982,95.093,85.632
1.129,3.406,0.459,-103.638,98.267,18.311
1.075,3.083,0.265,-53.650,94.055,-49.377
0.890,2.575,0.246,-13.062,83.313,-113.403
0.851,2.109,0.260,14.832,71.350,-166.687
0.822,1.702,0.240,27.466,59.509,-209.351
0.701,1.324,0.224,41.382,47.302,-243.896
0.536,0.987,0.218,50.110,44.617,-268.982
0.402,0.614,0.200,47.363,50.049,-284.119
0.342,0.121,0.095,45.288,59.692,-291.809
0.220,-0.217,-0.048,37.598,69.946,-291.260
0.110,-0.662,-0.195,16.846,83.801,-282.104
0.146,-1.162,-0.235,-5.432,99.243,-260.681
0.296,-1.238,-0.312,-40.894,115.723,-222.717
0.309,-1.091,-0.576,-76.660,130.249,-178.833
0.344,-1.178,-0.856,-78.125,132.141,-152.161
0.270,-1.356,-1.007,-46.509,122.131,-136.108
0.254,-1.577,-1.035,-29.663,107.361,-116.638
0.364,-1.809,-1.170,-20.508,92.957,-93.811
0.439,-1.910,-1.129,-6.592,67.688,-63.843
0.492,-1.922,-1.136,5.188,38.269,-28.992
0.496,-1.863,-1.187,10.742,8.362,3.723
0.502,-1.800,-1.130,19.897,-23.926,34.546
0.470,-1.669,-1.027,29.297,-54.443,64.087
0.401,-1.482,-0.967,36.011,-80.811,91.248
0.338,-1.244,-0.868,50.598,-103.699,112.122
0.273,-1.031,-0.777,68.298,-123.230,127.441
0.250,-0.820,-0.643,85.938,-140.442,138.306
0.243,-0.630,-0.495,104.370,-157.410,145.935
0.239,-0.417,-0.300,116.516,-172.363,152.405
0.299,-0.137,-0.189,119.568,-184.631,159.180
0.344,0.097,-0.021,118.835,-199.036,162.842
0.425,0.188,0.233,114.929,-215.393,163.879
0.443,0.424,0.408,101.990,-224.060,166.687
0.552,0.451,0.594,77.026,-223.633,170.349
0.530,0.758,0.784,51.819,-214.111,174.438
0.553,0.977,0.862,15.015,-190.308,174.377
0.566,1.198,0.913,-13.428,-157.227,169.128
0.606,1.474,0.880,-25.940,-122.620,156.433
0.531,1.679,0.720,-30.212,-93.445,137.146
0.640,1.831,0.588,-9.888,-77.637,105.225
0.758,1.904,0.668,24.902,-70.740,69.336
0.827,1.830,0.787,45.959,-67.078,38.025
0.819,1.774,0.765,43.945,-65.979,12.939
0.780,1.677,0.657,36.987,-65.674,-10.986
0.772,1.599,0.591,42.114,-61.279,-38.513
0.753,1.496,0.594,52.429,-55.725,-67.993
0.729,1.382,0.612,50.476,-49.988,-94.727
0.690,1.272,0.568,37.415,-45.349,-116.272
0.655,1.147,0.520,28.259,-43.213,-134.766
0.615,1.009,0.445,26.794,-43.274,-153.015
0.586,0.842,0.421,33.264,-44.983,-170.898
0.548,0.707,0.442,39.673,-48.523,-185.364
0.489,0.566,0.385,36.987,-51.941,-196.777
0.425,0.408,0.340,41.016,-54.077,-206.726
0.390,0.279,0.338,54.810,-56.213,-215.637
0.377,0.141,0.367,63.660,-57.617,-221.130
0.437,-0.064,0.397,62.378,-57.251,-221.191
0.489,-0.221,0.405,52.185,-53.650,-216.064
0.477,-0.276,0.388,34.302,-48.218,-205.505
0.478,-0.323,0.350,10.132,-42.908,-192.871
0.504,-0.365,0.312,-13.306,-40.283,-179.810
0.530,-0.390,0.290,-30.823,-40.588,-167.542
0.539,-0.434,0.286,-37.903,-44.189,-157.837
0.527,-0.462,0.293,-37.964,-51.392,-150.635
0.517,-0.459,0.312,-34.546,-60.852,-144.836
0.504,-0.464,0.332,-32.288,-70.435,-139.282
0.465,-0.460,0.336,-32.532,-78.369,-134.155
0.434,-0.442,0.360,-29.724,-84.595,-129.822
0.396,-0.502,0.361,-26.550,-88.196,-126.831
0.470,-0.504,0.333,-26.978,-88.806,-124.695
0.467,-0.514,0.414,-27.893,-93.323,-116.699
0.455,-0.572,0.343,-34.302,-96.375,-112.976
0.438,-0.626,0.393,-26.367,-100.769,-112.488
0.447,-0.665,0.511,-8.728,-108.154,-112.854
0.416,-0.666,0.564,-6.287,-113.831,-110.962
0.389,-0.654,0.513,-13.184,-117.004,-107.910
0.343,-0.616,0.525,-9.949,-120.728,-104.858
0.340,-0.600,0.537,-3.052,-122.864,-100.891
0.354,-0.568,0.531,-2.441,-122.620,-95.093
0.329,-0.587,0.542,-2.991,-121.765,-89.478
0.337,-0.543,0.516,-1.770,-121.582,-84.412
0.297,-0.545,0.535,-1.038,-120.972,-82.397
0.316,-0.551,0.516,1.770,-121.399,-84.778
0.275,-0.615,0.550,9.399,-124.634,-85.999
0.276,-0.702,0.544,15.869,-129.150,-90.576
0.269,-0.758,0.708,18.005,-132.507,-90.454
0.236,-0.662,0.677,5.005,-136.047,-83.374
0.141,-0.661,0.587,0.000,-141.235,-81.421
0.073,-0.640,0.658,13.672,-148.865,-84.290
0.022,-0.617,0.735,29.541,-154.663,-87.891
0.066,-0.655,0.779,37.598,-156.616,-90.332
0.036,-0.736,0.826,42.114,-157.959,-88.562
0.062,-0.769,0.884,39.917,-154.846,-81.421
0.023,-0.737,0.864,25.330,-146.545,-69.946
0.026,-0.620,0.784,9.827,-136.169,-64.270
,,,,,
-0.790,-0.822,1.111,9.155,22.400,38.391
-0.839,-0.952,1.241,21.667,28.381,46.021
-0.861,-1.050,1.414,28.259,40.466,56.091
-0.900,-1.051,1.369,14.587,62.195,68.359
-0.916,-1.057,1.297,-4.639,81.055,80.261
-0.924,-1.051,1.332,0.000,92.651,89.722
-0.894,-1.030,1.345,7.263,100.647,97.107
-0.879,-1.020,1.311,9.460,106.140,103.088
-0.871,-1.004,1.290,18.799,107.056,106.873
-0.851,-1.043,1.314,32.166,106.018,109.680
-0.845,-1.198,1.359,39.368,105.042,114.258
-0.838,-1.375,1.400,38.757,104.675,124.451
-0.885,-1.560,1.542,27.100,106.140,142.090
-0.899,-1.195,1.391,20.142,111.267,163.452
-0.883,-1.023,1.418,9.949,116.150,176.392
-0.890,-1.296,1.404,-7.080,122.864,183.716
-0.852,-0.992,1.271,-29.846,135.193,197.998
-0.774,-0.864,1.156,-29.114,147.034,202.087
-0.651,-0.755,1.057,-29.724,156.982,203.125
-0.546,-0.801,0.931,-29.602,163.757,203.979
-0.439,-0.758,0.905,-26.672,162.476,206.421
-0.360,-0.784,0.942,-22.278,154.907,207.703
-0.343,-0.888,1.009,-26.001,142.212,208.252
-0.360,-0.941,1.018,-35.767,132.996,208.557
-0.369,-0.894,1.029,-54.016,128.113,210.510
-0.383,-0.891,1.001,-75.623,125.183,214.111
-0.366,-0.559,1.016,-93.018,122.437,217.773
-0.384,-0.467,1.013,-100.281,122.192,215.576
-0.368,-0.481,1.047,-103.760,121.765,213.562
-0.365,-0.474,1.097,-104.553,123.413,211.609
-0.401,-0.372,1.211,-107.727,127.136,210.510
-0.426,-0.246,1.322,-111.511,134.277,207.092
-0.407,-0.121,1.339,-114.014,148.315,198.059
-0.384,-0.104,1.328,-113.586,161.987,184.143
-0.398,-0.271,1.342,-108.765,170.349,167.725
-0.432,-0.191,1.473,-108.582,181.213,157.288
-0.379,0.054,1.412,-107.849,200.684,147.766
-0.408,0.071,1.338,-111.450,218.933,130.371
-0.407,0.129,1.293,-112.000,235.046,115.662
-0.418,0.263,1.280,-102.966,251.282,100.281
-0.424,0.412,1.184,-98.145,270.203,81.787
-0.400,0.326,1.081,-89.233,288.513,62.317
-0.455,0.306,0.873,-85.876,307.129,46.692
-0.429,0.324,0.756,-81.238,317.932,31.860
-0.428,0.315,0.609,-77.026,321.960,16.296
-0.413,0.341,0.563,-75.439,323.303,2.747
-0.359,0.231,0.652,-61.646,326.294,-14.954
-0.382,0.201,0.614,-46.570,340.637,-28.381
-0.361,0.196,0.471,-44.434,363.708,-39.673
-0.318,0.172,0.165,-36.438,380.127,-50.659
-0.313,0.182,-0.072,-24.292,381.714,-58.350
-0.318,0.130,-0.156,-12.146,372.375,-65.918
-0.223,0.016,-0.216,1.770,361.694,-76.050
-0.361,0.011,-0.094,-1.831,351.929,-81.299
-0.278,-0.192,-0.250,-9.583,349.121,-90.759
-0.154,-0.353,-0.280,-36.072,340.942,-97.290
-0.048,-0.533,-0.673,-72.876,322.449,-98.938
-0.091,-0.718,-0.633,-88.440,304.626,-96.741
-0.062,-1.198,-1.042,-103.882,299.561,-110.535
0.232,-1.651,-1.055,-86.365,286.194,-123.901
0.147,-1.643,-0.888,-57.434,247.559,-105.164
-0.134,-1.550,-1.136,-58.960,221.130,-80.688
-0.085,-1.436,-1.398,-59.998,199.951,-67.810
0.198,-1.437,-1.476,10.681,171.631,-56.030
0.048,-1.331,-1.266,24.170,126.038,-24.902
-0.026,-1.446,-1.384,17.090,83.191,4.944
-0.038,-1.679,-1.437,21.667,54.993,33.081
0.009,-1.877,-1.374,12.390,18.982,75.806
0.081,-1.631,-1.213,5.737,-22.766,121.704
0.074,-1.634,-1.029,12.207,-54.688,149.414
0.006,-1.395,-1.161,14.709,-79.590,172.302
-0.057,-1.406,-0.932,23.560,-110.962,191.589
0.005,-1.152,-0.532,42.175,-141.907,211.426
-0.042,-0.587,-0.564,30.701,-165.222,232.056
0.044,-0.467,-0.206,38.452,-187.622,237.854
0.124,-0.022,0.040,47.363,-203.552,243.164
0.237,0.390,0.326,48.157,-227.356,245.972
0.403,0.686,0.698,52.307,-254.272,241.760
0.489,0.786,1.074,45.288,-263.245,229.675
0.670,0.850,1.589,11.475,-241.699,220.825
0.831,1.189,1.967,-46.326,-192.749,220.398
0.893,1.884,1.933,-121.765,-116.394,223.938
0.819,2.530,1.724,-199.280,-30.090,216.492
0.926,2.961,1.402,-232.239,38.513,178.223
1.090,3.118,1.153,-204.468,80.566,118.408
1.344,3.174,0.855,-145.752,105.530,53.833
1.265,2.983,0.717,-88.196,127.197,-10.498
1.190,2.612,0.510,-40.161,137.634,-74.646
0.950,2.280,0.299,-14.587,140.808,-131.042
0.775,1.754,0.018,16.235,135.254,-183.289
0.747,1.314,-0.054,63.171,124.329,-231.323
0.727,0.972,-0.062,110.107,114.258,-272.522
0.596,0.541,-0.057,135.925,110.107,-304.749
0.410,0.042,-0.290,142.151,117.737,-324.219
0.367,-0.761,-0.482,139.526,133.118,-332.397
0.217,-1.082,-0.405,132.812,145.691,-316.406
0.217,-1.348,-0.464,110.596,159.424,-279.480
0.105,-1.602,-0.774,54.443,177.185,-229.492
0.059,-1.738,-1.211,13.916,196.594,-176.453
0.088,-2.035,-1.768,-3.174,199.890,-130.310
-0.008,-2.042,-1.953,-19.104,162.170,-83.069
0.106,-2.166,-1.917,-29.419,105.286,-42.725
0.236,-2.183,-1.739,-42.725,50.354,-0.366
0.292,-2.070,-1.634,-52.979,0.427,41.931
0.309,-1.929,-1.588,-52.551,-41.321,76.599
0.240,-1.780,-1.450,-42.480,-83.008,102.356
0.224,-1.554,-1.306,-18.616,-119.385,119.751
0.127,-1.339,-1.120,15.137,-155.151,133.118
0.114,-1.078,-0.815,46.814,-188.049,145.142
0.132,-0.843,-0.576,73.059,-210.327,154.236
0.232,-0.615,-0.241,93.445,-227.600,162.231
0.364,-0.325,0.212,105.530,-240.417,171.997
0.481,-0.031,0.516,91.309,-249.084,183.472
0.677,0.188,0.853,53.772,-253.906,195.740
0.744,0.543,1.044,9.827,-249.573,207.703
0.841,0.741,1.306,-39.673,-227.722,214.478
1.032,1.211,1.657,-80.139,-183.960,218.689
1.023,1.800,1.638,-129.150,-124.939,217.590
1.038,2.367,1.543,-163.940,-59.204,198.425
,,,,,
1.127,2.891,1.286,-176.025,48.157,122.986
1.278,2.880,1.004,-167.297,82.275,76.660
1.305,2.799,0.811,-141.785,101.501,24.780
1.305,2.555,0.565,-108.582,108.582,-29.907
1.173,2.237,0.334,-67.139,104.553,-86.060
1.021,1.825,0.194,-17.761,93.811,-141.113
0.883,1.461,0.161,35.461,79.651,-190.125
0.775,1.080,0.098,75.684,67.749,-229.614
0.660,0.690,0.007,106.323,61.157,-258.545
0.517,0.246,-0.084,131.226,60.974,-276.917
0.346,-0.311,-0.090,147.461,69.946,-283.875
0.309,-0.776,-0.123,135.559,88.562,-274.475
0.280,-1.141,-0.161,106.628,111.084,-252.258
0.318,-1.617,-0.462,70.557,140.320,-220.581
0.244,-1.912,-0.934,20.569,162.354,-178.711
0.243,-2.074,-1.260,-10.437,160.278,-133.240
0.210,-2.020,-1.268,-30.334,138.367,-87.646
0.266,-2.074,-1.350,-44.373,113.770,-47.180
0.338,-2.101,-1.484,-55.786,78.247,-9.277
0.376,-2.013,-1.417,-55.054,32.166,29.907
0.409,-1.892,-1.249,-46.021,-10.376,63.232
0.397,-1.768,-1.182,-26.978,-41.687,88.196
0.343,-1.605,-1.162,-7.202,-68.726,112.549
0.290,-1.423,-1.099,19.348,-96.558,133.728
0.249,-1.233,-0.927,51.941,-124.695,149.231
0.253,-0.981,-0.678,78.613,-149.963,162.354
0.281,-0.713,-0.449,98.511,-167.480,171.875
0.314,-0.418,-0.236,107.788,-182.251,178.284
0.431,-0.218,0.123,105.835,-199.524,183.472
0.555,-0.065,0.521,91.980,-210.388,188.477
0.535,0.427,0.648,54.993,-212.280,201.355
0.569,0.655,1.013,3.052,-206.421,212.891
0.787,0.997,1.409,-34.851,-181.213,220.154
0.944,1.385,1.494,-96.863,-131.653,229.004
0.938,1.763,1.345,-158.875,-72.693,230.164
0.944,2.278,1.163,-187.195,-15.320,216.553
0.998,2.705,1.155,-186.279,34.668,183.655
1.077,3.009,0.886,-184.143,74.036,142.090
1.214,3.022,0.648,-169.739,94.055,92.590
1.230,3.032,0.468,-130.859,97.412,36.804
1.084,2.926,0.237,-78.979,94.849,-23.010
1.036,2.609,0.125,-28.198,90.942,-84.961
0.953,2.031,0.157,18.738,81.482,-140.869
0.926,1.637,0.127,38.147,71.899,-181.274
0.854,1.266,0.132,51.514,59.509,-212.341
0.741,1.018,0.102,61.584,49.927,-236.450
0.631,0.729,0.050,66.284,45.532,-254.333
0.527,0.513,0.057,75.439,42.969,-265.137
0.423,0.220,-0.009,72.998,46.936,-268.799
0.370,-0.232,-0.010,59.448,57.068,-263.977
0.271,-0.675,-0.083,51.208,69.275,-252.869
0.262,-0.959,-0.245,32.104,84.656,-237.366
0.358,-1.324,-0.421,10.132,103.638,-218.262
0.444,-1.545,-0.576,-15.808,118.835,-187.683
0.312,-1.537,-0.798,-47.729,123.596,-146.667
0.235,-1.772,-1.087,-64.087,121.399,-116.272
0.253,-1.707,-1.205,-45.410,105.774,-93.445
0.335,-1.882,-1.179,-22.034,76.111,-73.730
0.425,-1.948,-1.209,-16.541,38.574,-48.523
0.465,-1.972,-1.149,-11.902,-0.977,-19.104
0.421,-1.807,-1.072,-8.240,-33.752,13.062
0.328,-1.803,-1.044,-0.977,-59.326,41.687
0.322,-1.627,-1.001,13.611,-78.552,68.420
0.287,-1.477,-0.918,31.677,-94.849,93.567
0.238,-1.276,-0.872,43.152,-108.582,115.845
0.320,-1.051,-0.696,56.396,-120.667,132.263
0.319,-0.837,-0.531,68.909,-132.629,144.531
0.336,-0.543,-0.432,70.557,-143.005,156.189
0.465,-0.492,-0.095,80.383,-155.701,160.889
0.489,-0.060,0.211,76.294,-166.138,170.410
0.539,0.388,0.117,48.523,-174.500,178.650
0.720,0.330,0.540,51.147,-187.805,169.556
0.786,0.601,0.696,31.311,-187.744,171.814
0.692,0.806,0.829,-14.587,-172.424,176.697
0.748,1.135,0.883,-41.931,-144.592,174.072
0.862,1.373,0.919,-67.505,-108.765,160.828
0.895,1.687,0.903,-78.186,-73.486,141.235
0.896,1.930,0.798,-81.177,-41.565,117.310
0.952,1.976,0.695,-76.416,-15.625,87.158
1.012,1.933,0.613,-61.584,1.587,56.091
1.048,1.871,0.553,-35.034,9.644,24.414
1.085,1.753,0.504,-8.667,14.038,-7.019
1.038,1.639,0.414,11.719,15.930,-37.109
0.975,1.458,0.315,25.391,15.198,-66.833
0.924,1.224,0.283,34.607,13.550,-94.910
0.882,1.119,0.254,39.368,9.827,-119.202
0.812,0.873,0.218,46.021,3.662,-142.578
0.790,0.776,0.228,54.016,-1.038,-160.950
0.785,0.704,0.214,59.814,-4.333,-175.293
0.742,0.581,0.192,63.965,-7.935,-187.988
0.680,0.433,0.166,63.416,-8.301,-196.167
0.624,0.237,0.152,58.472,-6.653,-199.585
0.586,0.041,0.161,46.631,-3.296,-197.510
0.568,-0.118,0.171,31.555,-1.831,-192.139
0.561,-0.255,0.160,20.569,-1.892,-186.707
0.609,-0.366,0.134,5.249,-0.244,-178.162
0.641,-0.457,0.125,-8.118,0.732,-167.053
0.683,-0.510,0.088,-23.560,1.160,-154.175
0.661,-0.553,0.019,-38.330,-0.244,-140.564
0.642,-0.568,-0.040,-46.265,-4.028,-128.113
0.642,-0.566,-0.074,-47.913,-9.766,-118.042
0.640,-0.534,-0.095,-46.204,-17.456,-109.253
0.636,-0.537,-0.114,-43.030,-26.733,-101.807
0.627,-0.575,-0.114,-37.842,-35.156,-95.459
0.615,-0.612,-0.105,-34.546,-43.640,-88.806
0.611,-0.669,-0.099,-35.767,-53.406,-81.360
0.589,-0.739,-0.077,-37.964,-63.599,-73.792
0.568,-0.792,-0.020,-39.429,-73.975,-66.223
0.569,-0.790,0.035,-41.870,-83.740,-58.899
0.581,-0.780,0.066,-45.105,-92.224,-52.063
0.587,-0.760,0.103,-46.570,-99.487,-45.532
0.590,-0.711,0.155,-42.969,-105.347,-40.161
0.595,-0.667,0.194,-38.086,-109.741,-35.767
0.581,-0.641,0.196,-33.997,-113.159,-32.227
0.561,-0.587,0.208,-28.198,-115.295,-28.992
0.566,-0.570,0.228,-23.987,-115.723,-26.611
0.593,-0.560,0.253,-22.095,-113.953,-24.841
0.608,-0.580,0.279,-22.156,-111.511,-23.010
0.608,-0.590,0.303,-23.560,-109.802,-20.935
,,,,,
-0.618,-0.865,1.071,-2.930,64.941,79.773
-0.618,-0.886,1.073,-10.498,68.420,84.961
-0.617,-0.829,1.071,-16.846,72.144,90.454
-0.614,-0.840,1.093,-19.409,75.623,94.971
-0.618,-0.857,1.131,-19.165,79.041,99.426
-0.618,-0.870,1.163,-17.822,83.618,105.469
-0.618,-0.858,1.203,-15.930,88.684,111.816
-0.612,-0.856,1.196,-15.137,94.299,115.845
-0.596,-0.888,1.187,-13.855,98.755,117.859
-0.524,-1.009,1.254,-10.132,102.173,121.155
-0.674,-0.952,1.107,-9.216,107.422,129.639
-0.567,-0.772,1.151,0.000,109.314,136.230
-0.525,-0.877,1.267,6.104,107.178,134.155
-0.551,-0.974,1.219,-2.808,108.887,135.071
-0.544,-0.993,1.273,3.967,107.666,139.099
-0.549,-1.076,1.354,8.057,106.262,143.372
-0.578,-1.024,1.315,0.427,110.901,153.076
-0.575,-0.876,1.291,-0.977,116.638,161.072
-0.578,-0.956,1.328,-1.099,120.605,164.551
-0.576,-0.936,1.273,-9.583,126.465,171.387
-0.557,-0.864,1.262,-14.832,130.920,177.795
-0.537,-0.804,1.302,-16.907,130.920,182.129
-0.533,-0.769,1.329,-24.658,129.578,184.509
-0.534,-0.732,1.353,-34.424,127.747,183.960
-0.523,-0.645,1.374,-41.321,127.502,180.908
-0.500,-0.594,1.394,-50.415,128.479,177.185
-0.560,-0.578,1.394,-62.012,132.019,171.692
-0.515,-0.474,1.424,-72.998,138.611,165.894
-0.521,-0.413,1.400,-79.224,146.912,160.400
-0.549,-0.385,1.408,-85.510,157.776,154.236
-0.567,-0.365,1.404,-89.050,172.180,147.278
-0.534,-0.340,1.373,-90.454,189.880,141.907
-0.578,-0.279,1.295,-91.248,208.618,134.155
-0.584,-0.198,1.197,-92.957,225.037,124.084
-0.563,-0.080,1.147,-87.219,236.328,113.342
-0.561,0.028,1.109,-77.576,244.812,100.708
-0.457,0.078,1.021,-67.078,253.906,85.266
-0.444,-0.187,0.964,-55.664,260.986,70.374
-0.452,-0.007,0.915,-54.260,269.043,67.078
-0.444,0.153,0.776,-49.561,279.053,58.899
-0.420,0.098,0.643,-48.462,285.400,43.823
-0.384,-0.020,0.555,-43.823,287.476,31.555
-0.339,0.074,0.510,-39.795,287.781,24.292
-0.257,0.081,0.443,-31.677,287.659,14.954
-0.227,0.047,0.374,-32.043,286.865,7.080
-0.193,0.020,0.253,-33.264,287.292,-1.343
-0.166,-0.075,0.159,-30.884,286.316,-10.864
-0.122,-0.105,0.049,-26.367,283.569,-17.822
-0.142,-0.056,-0.007,-28.870,280.090,-22.034
-0.071,-0.116,-0.125,-27.588,278.076,-31.555
-0.023,-0.144,-0.182,-31.311,275.391,-40.100
0.001,-0.211,-0.241,-40.771,273.987,-46.631
0.065,-0.285,-0.339,-49.927,273.926,-52.612
0.042,-0.424,-0.538,-54.932,274.170,-60.242
0.183,-0.754,-0.805,-51.453,274.353,-69.214
0.259,-1.316,-1.007,-46.448,269.287,-68.237
0.143,-1.545,-1.181,-27.588,257.812,-56.702
0.089,-1.738,-1.292,30.334,235.229,-48.523
0.171,-1.680,-1.006,85.815,205.261,-35.645
0.097,-1.416,-0.896,55.542,171.082,-9.277
0.351,-1.499,-0.975,43.579,144.470,5.676
0.328,-1.617,-1.287,19.531,113.892,25.085
0.016,-1.523,-1.454,-13.916,60.669,58.960
0.065,-1.475,-1.250,-3.967,1.709,91.553
0.187,-1.544,-0.769,-9.583,-40.955,122.192
0.153,-1.488,-0.621,-19.958,-57.373,156.250
0.101,-1.286,-0.838,-26.978,-57.922,187.134
0.060,-0.952,-0.968,-21.301,-74.646,209.595
0.115,-0.784,-0.562,-7.263,-105.164,220.947
0.173,-0.503,-0.176,1.526,-127.563,230.286
0.214,-0.173,-0.053,0.488,-140.625,239.014
0.278,0.283,0.084,-0.916,-155.762,242.065
0.411,0.433,0.392,10.620,-170.410,233.582
0.505,0.499,0.717,12.695,-177.917,224.182
0.575,0.689,0.948,0.366,-175.049,221.924
0.733,1.151,1.527,-15.808,-162.354,220.764
0.766,1.553,1.802,-47.058,-120.850,213.684
0.923,1.794,1.335,-121.399,-54.321,199.463
0.825,2.234,1.350,-156.189,-5.981,176.086
0.898,2.862,1.129,-172.241,37.109,146.362
1.054,3.088,1.104,-177.612,77.820,95.215
1.096,3.159,1.058,-172.424,106.323,45.166
1.109,3.098,0.843,-177.063,122.070,-6.042
0.920,2.912,0.449,-148.804,125.549,-65.369
0.847,2.569,0.160,-70.801,124.451,-135.010
0.679,2.217,0.263,23.315,119.385,-199.829
0.640,1.703,0.225,74.707,115.112,-253.052
0.495,1.200,0.057,100.891,111.633,-292.297
0.343,0.643,0.033,136.047,114.014,-321.777
0.305,-0.111,-0.233,147.522,130.615,-335.144
0.203,-0.789,-0.329,120.728,150.818,-323.853
0.122,-0.930,-0.380,90.759,157.104,-294.739
0.071,-1.163,-0.458,78.613,162.354,-265.076
0.095,-1.479,-0.686,55.420,177.124,-234.070
0.076,-1.898,-1.061,28.198,184.875,-198.608
0.005,-2.000,-1.526,16.785,176.147,-158.691
0.057,-2.352,-1.600,-7.507,148.071,-112.427
0.120,-2.475,-1.505,-37.109,112.793,-59.143
0.228,-2.465,-1.874,-60.974,78.918,-3.418
0.248,-2.275,-1.836,-72.266,18.799,48.706
0.317,-2.201,-1.418,-68.787,-43.701,90.820
0.251,-2.053,-1.221,-63.965,-83.252,126.221
0.192,-1.829,-1.122,-53.345,-107.849,152.344
0.164,-1.549,-1.027,-32.654,-132.507,169.250
0.083,-1.239,-0.893,-3.357,-160.767,182.373
0.106,-0.895,-0.598,24.536,-191.528,194.885
0.220,-0.626,-0.030,51.025,-216.675,201.965
0.290,-0.239,0.239,61.462,-227.600,206.909
0.418,0.032,0.450,60.547,-231.689,207.153
0.481,0.299,0.654,47.302,-236.023,212.402
0.662,0.645,1.025,22.034,-230.591,218.567
0.810,1.101,1.387,-4.395,-209.106,222.046
1.014,1.445,2.090,-36.133,-168.518,218.506
1.015,1.897,1.865,-80.688,-96.436,210.510
1.027,2.371,1.445,-149.658,-33.691,194.275
1.091,2.910,1.757,-133.545,11.841,159.302
1.271,3.162,1.515,-141.846,54.932,115.540
1.317,3.229,1.160,-157.104,86.670,63.293
1.301,3.061,0.993,-117.615,98.267,3.479
,,,,,
1.097,2.467,0.528,-50.293,103.455,-120.850
0.902,2.062,0.318,0.671,97.473,-180.176
0.737,1.631,0.219,60.303,92.529,-234.619
0.562,1.125,0.188,118.774,92.712,-280.029
0.389,0.665,0.080,156.372,105.957,-311.951
0.267,-0.134,-0.161,168.030,130.554,-328.247
0.124,-0.749,-0.237,154.541,149.170,-320.618
0.030,-1.050,-0.291,135.498,168.640,-294.617
0.209,-1.405,-0.653,111.572,197.998,-260.986
0.123,-1.877,-0.966,61.218,218.750,-219.360
0.071,-2.044,-1.364,8.118,211.670,-165.039
0.060,-2.175,-1.614,-33.691,186.584,-117.188
0.205,-2.468,-1.732,-50.232,148.926,-80.383
0.304,-2.372,-1.747,-63.538,102.539,-33.691
0.306,-2.194,-1.750,-74.524,53.955,14.954
0.337,-1.952,-1.686,-69.153,10.559,55.359
0.328,-1.837,-1.582,-48.889,-28.870,84.229
0.321,-1.829,-1.387,-21.545,-66.711,106.750
0.160,-1.586,-1.294,4.150,-101.074,132.751
0.110,-1.286,-1.124,26.489,-132.996,155.884
0.197,-1.027,-0.834,53.528,-160.095,170.898
0.242,-0.778,-0.410,72.449,-185.425,182.922
0.308,-0.498,-0.114,76.599,-200.562,192.078
0.381,-0.191,0.061,58.472,-209.839,198.425
0.448,0.056,0.438,40.527,-219.666,205.200
0.587,0.277,0.762,11.841,-215.271,213.074
0.750,0.526,0.995,-23.132,-198.975,220.947
0.814,1.086,1.269,-57.861,-168.518,230.103
0.903,1.646,1.404,-96.497,-124.023,231.506
0.938,1.980,1.436,-137.634,-73.547,217.346
0.960,2.354,1.299,-158.508,-21.973,193.054
1.050,2.818,1.241,-149.963,19.226,156.006
1.142,2.952,1.030,-146.179,51.208,110.291
1.214,2.955,0.817,-129.089,70.984,59.265
1.234,2.889,0.681,-93.384,80.383,3.418
1.144,2.655,0.574,-56.946,83.923,-53.772
1.060,2.316,0.392,-23.621,82.642,-110.779
0.927,1.980,0.325,12.329,78.125,-161.072
0.796,1.672,0.231,41.626,73.669,-206.055
0.679,1.323,0.168,74.158,72.266,-246.277
0.579,0.981,0.081,108.459,74.768,-279.419
0.443,0.582,0.025,132.141,83.496,-301.758
0.317,0.080,-0.133,140.564,100.220,-308.289
0.253,-0.288,-0.208,141.846,112.244,-306.091
0.249,-0.535,-0.088,138.062,120.850,-292.725
0.305,-0.812,-0.200,94.727,134.827,-263.123
0.100,-0.876,-0.438,41.565,144.714,-226.318
0.156,-1.194,-0.649,13.550,148.376,-197.937
0.122,-1.417,-0.790,-10.986,144.592,-168.091
0.129,-1.537,-0.914,-37.903,131.104,-136.780
0.161,-1.552,-1.104,-62.439,113.831,-108.643
0.221,-1.488,-1.261,-76.172,91.492,-82.886
0.283,-1.458,-1.303,-72.205,63.354,-58.777
0.282,-1.307,-1.291,-61.340,32.410,-34.607
0.297,-1.287,-1.243,-47.363,2.869,-17.700
0.276,-1.321,-1.181,-31.616,-22.644,-3.845
0.267,-1.297,-1.104,-19.226,-45.898,14.465
0.260,-1.200,-1.084,-7.324,-65.308,33.630
0.230,-1.096,-1.034,2.319,-85.632,49.438
0.214,-0.991,-1.000,12.878,-104.858,60.425
0.268,-0.935,-0.834,26.611,-125.305,67.444
0.288,-0.784,-0.659,33.813,-142.761,74.341
0.331,-0.699,-0.650,33.081,-154.358,78.857
0.353,-0.582,-0.493,34.729,-167.114,82.336
0.404,-0.446,-0.403,35.400,-176.819,86.365
0.482,-0.360,-0.250,35.828,-187.256,87.280
0.528,-0.322,-0.095,37.292,-199.219,86.121
0.463,-0.216,-0.034,29.907,-208.191,87.646
0.561,-0.226,0.089,23.437,-214.355,88.440
0.539,-0.102,0.150,18.127,-215.759,89.722
0.598,0.020,0.285,15.259,-211.670,89.722
0.627,0.111,0.417,15.259,-204.468,88.806
0.631,0.185,0.450,13.245,-193.298,87.524
0.641,0.246,0.456,20.386,-181.519,83.313
0.673,0.301,0.489,40.161,-171.936,74.280
0.707,0.302,0.554,63.354,-165.527,62.317
0.734,0.231,0.605,76.843,-160.339,50.781
0.761,0.173,0.625,79.834,-155.579,40.649
0.787,0.134,0.661,79.773,-151.062,31.433
0.804,0.123,0.716,76.111,-146.606,23.865
0.816,0.098,0.753,68.481,-141.357,18.433
0.814,0.132,0.766,59.509,-135.071,14.832
0.810,0.139,0.774,54.199,-129.761,10.864
0.794,0.129,0.761,53.162,-125.183,5.859
0.807,0.101,0.732,53.040,-120.239,0.671
0.810,0.061,0.724,54.871,-115.723,-3.601
0.806,0.055,0.740,57.739,-111.389,-6.226
0.812,0.072,0.768,60.242,-107.788,-7.324
0.812,0.077,0.790,61.768,-104.858,-8.423
0.771,0.098,0.784,58.899,-102.417,-9.766
0.760,0.031,0.786,51.270,-99.365,-12.329
0.777,-0.105,0.825,40.527,-95.154,-14.648
0.802,-0.068,0.830,24.353,-88.806,-13.977
0.794,-0.020,0.816,6.348,-82.520,-12.756
0.780,0.024,0.778,-4.272,-77.515,-14.343
0.767,0.048,0.748,-5.432,-73.608,-18.799
0.751,0.058,0.719,0.854,-70.618,-25.330
0.745,0.046,0.677,11.414,-70.007,-32.654
0.709,0.020,0.656,25.024,-71.167,-40.039
0.697,0.003,0.670,41.626,-74.707,-46.570
0.690,-0.030,0.687,53.467,-78.613,-50.903
0.673,-0.096,0.696,57.556,-81.482,-52.979
0.666,-0.167,0.713,58.289,-82.031,-52.917
0.657,-0.220,0.724,54.993,-79.651,-51.697
0.646,-0.254,0.738,44.128,-75.439,-49.683
0.637,-0.275,0.761,31.799,-72.449,-47.485
0.626,-0.259,0.766,18.860,-69.824,-45.044
0.617,-0.230,0.735,5.981,-68.054,-42.664
0.598,-0.209,0.694,-3.235,-67.139,-41.992
0.584,-0.203,0.678,-5.249,-67.932,-43.396
0.570,-0.205,0.658,-2.808,-70.557,-44.800
0.546,-0.211,0.633,-1.282,-73.059,-45.471
0.515,-0.234,0.639,3.479,-75.623,-46.875
0.505,-0.245,0.682,14.709,-79.163,-50.781
0.520,-0.275,0.692,28.625,-81.787,-54.626
0.465,-0.271,0.751,34.973,-82.275,-56.580
0.486,-0.315,0.723,36.438,-82.886,-58.350
0.464,-0.351,0.764,41.992,-81.970,-58.105
0.450,-0.381,0.816,41.931,-81.116,-57.007
,,,,,
-0.638,-0.807,1.176,8.850,45.898,72.205
-0.634,-0.837,1.210,6.165,49.377,76.355
-0.627,-0.823,1.227,5.432,55.054,81.055
-0.609,-0.761,1.245,6.042,61.462,85.876
-0.591,-0.761,1.293,11.108,67.688,89.355
-0.571,-0.807,1.336,15.747,75.012,93.140
-0.560,-0.880,1.348,13.855,84.045,98.145
-0.571,-0.938,1.354,9.766,92.468,103.088
-0.596,-0.950,1.373,5.981,99.304,108.154
-0.603,-0.951,1.388,1.343,105.286,112.610
-0.622,-0.910,1.379,-4.700,110.962,117.615
-0.600,-0.872,1.361,-8.789,116.028,122.437
-0.576,-0.797,1.342,-10.864,121.216,125.732
-0.522,-0.844,1.320,-12.390,127.197,126.160
-0.524,-0.827,1.348,-15.869,134.277,128.601
-0.473,-0.770,1.323,-20.081,141.357,132.690
-0.455,-0.802,1.362,-20.569,146.301,133.240
-0.457,-0.803,1.382,-20.386,151.672,132.690
-0.430,-0.779,1.350,-23.193,158.569,132.141
-0.430,-0.753,1.366,-24.780,164.490,132.080
-0.439,-0.749,1.387,-28.503,169.678,130.920
-0.438,-0.693,1.349,-36.621,175.476,129.150
-0.428,-0.664,1.407,-37.109,178.833,126.221
-0.423,-0.599,1.456,-36.438,179.871,125.244
-0.431,-0.569,1.463,-34.058,182.617,122.375
-0.441,-0.540,1.499,-28.442,186.218,119.202
-0.472,-0.485,1.528,-22.339,192.017,115.784
-0.484,-0.421,1.523,-19.226,202.454,112.671
-0.497,-0.353,1.499,-13.611,217.102,109.009
-0.490,-0.315,1.433,-5.981,233.459,104.736
-0.492,-0.338,1.369,-0.854,246.277,100.281
-0.491,-0.342,1.339,3.906,254.761,95.337
-0.494,-0.324,1.325,6.348,261.719,89.783
-0.484,-0.281,1.248,7.507,269.653,82.886
-0.481,-0.252,1.140,9.827,276.733,74.951
-0.479,-0.204,1.037,15.015,281.372,67.749
-0.488,-0.163,0.961,21.484,284.241,61.340
-0.435,-0.169,0.899,26.489,287.292,54.810
-0.406,-0.140,0.802,33.997,290.161,49.133
-0.377,-0.125,0.727,39.063,291.321,44.739
-0.346,-0.146,0.653,46.204,292.053,39.307
-0.299,-0.181,0.566,51.086,293.579,35.400
-0.269,-0.217,0.451,45.471,294.800,32.898
-0.257,-0.216,0.331,38.147,295.593,29.541
-0.235,-0.224,0.228,27.405,295.349,24.658
-0.176,-0.250,0.109,16.602,293.579,18.982
-0.145,-0.240,0.007,10.681,288.757,13.489
-0.097,-0.290,-0.063,-1.099,284.119,9.277
-0.020,-0.383,-0.162,-19.348,281.067,4.517
0.040,-0.493,-0.265,-33.142,274.780,1.099
0.039,-0.647,-0.450,-44.495,267.700,0.427
-0.040,-0.746,-0.590,-60.059,263.855,1.282
-0.004,-0.916,-0.804,-42.908,252.197,-1.953
0.067,-1.025,-0.770,-0.732,227.722,-4.272
0.023,-1.182,-1.002,40.161,200.806,-4.333
-0.025,-1.135,-0.996,59.448,178.284,7.080
0.090,-1.159,-0.868,57.617,154.785,25.879
0.150,-1.437,-0.943,45.044,128.601,43.335
0.210,-1.573,-1.126,15.015,99.060,70.129
0.038,-1.486,-1.041,-16.663,63.904,106.628
-0.020,-1.382,-0.915,-30.823,23.254,141.724
-0.120,-1.234,-1.053,-27.527,-7.080,168.640
-0.054,-1.206,-0.664,-37.231,-34.302,193.604
-0.059,-1.047,-0.599,-46.509,-52.917,218.567
-0.083,-0.845,-0.586,-50.232,-65.308,237.732
-0.105,-0.674,-0.516,-35.278,-77.026,248.108
-0.081,-0.385,-0.432,-30.457,-92.773,255.737
-0.046,-0.068,-0.240,-31.250,-116.272,259.949
0.073,0.143,0.264,-22.278,-135.559,256.348
0.206,0.521,0.375,-14.465,-135.681,248.657
0.320,0.712,0.452,-30.273,-134.338,238.831
0.483,0.840,0.790,-20.630,-130.371,226.929
0.541,1.023,1.151,-43.640,-110.840,221.252
0.723,1.504,1.129,-101.379,-69.763,215.637
0.774,1.887,1.048,-131.165,-25.208,194.885
0.726,2.156,0.863,-144.043,11.719,162.720
0.770,2.496,0.683,-132.507,41.748,121.948
0.869,2.476,0.575,-102.966,65.308,71.533
0.991,2.565,0.565,-51.208,81.055,20.264
1.004,2.548,0.490,-21.362,94.238,-26.672
0.907,2.432,0.356,6.287,101.746,-76.416
0.801,2.173,0.221,39.429,104.431,-128.601
0.700,1.664,0.142,58.899,104.248,-178.406
0.601,1.346,0.032,67.810,107.483,-219.055
0.434,1.146,0.007,71.350,109.558,-250.610
0.560,0.688,-0.040,-0.732,123.657,-269.714
0.415,-0.422,-0.372,-62.988,145.081,-281.433
0.451,-1.554,-0.968,-13.916,146.973,-292.542
0.547,-1.637,-0.624,25.940,141.052,-264.648
0.465,-1.399,-0.369,69.336,144.592,-227.112
0.470,-1.303,-0.645,-21.729,158.508,-185.120
0.252,-2.050,-1.212,-83.130,176.819,-150.879
-0.034,-2.040,-2.290,-76.904,160.156,-113.220
0.097,-2.025,-1.617,-34.180,89.294,-83.496
0.323,-2.434,-1.116,-45.288,21.973,-46.204
0.421,-2.584,-1.225,-61.096,-8.057,-6.287
0.337,-2.511,-1.340,-75.928,-39.185,45.654
0.275,-2.238,-1.198,-71.411,-71.167,92.224
0.235,-1.921,-1.011,-43.457,-94.421,123.169
0.181,-1.815,-0.972,-8.667,-113.708,143.677
0.197,-1.597,-0.829,22.583,-135.681,166.443
0.184,-1.290,-0.570,47.974,-160.156,191.528
0.205,-0.860,-0.313,67.871,-180.786,210.693
0.355,-0.332,-0.021,78.979,-198.608,222.229
0.480,0.137,0.278,85.266,-215.454,225.098
0.588,0.199,0.555,84.595,-227.539,218.262
0.685,0.285,0.881,57.251,-229.858,218.933
0.739,0.750,1.153,1.770,-218.201,235.046
0.751,1.335,1.185,-46.692,-189.514,244.934
0.877,1.870,1.398,-82.642,-151.672,238.525
0.921,2.409,1.691,-103.882,-110.046,214.478
0.983,2.849,1.482,-120.422,-49.500,178.711
1.178,3.195,1.341,-142.151,4.028,136.292
1.227,3.326,1.255,-129.944,44.678,88.135
1.264,3.034,1.098,-120.605,75.684,37.964
1.268,2.900,0.852,-118.286,97.961,-7.812
1.170,2.709,0.639,-96.802,107.361,-56.824
1.053,2.356,0.450,-65.491,109.741,-110.413
0.921,1.923,0.291,-25.879,105.286,-164.856
,,,,,
0.094,-2.122,-0.878,-3.357,162.415,-218.689
0.188,-2.296,-1.010,-34.058,160.095,-176.331
0.244,-2.269,-1.054,-49.866,147.217,-131.287
0.274,-2.262,-1.250,-48.096,129.517,-89.966
0.250,-2.143,-1.437,-42.603,99.426,-45.349
0.296,-2.047,-1.441,-31.494,55.359,-6.958
0.405,-2.205,-1.247,-10.376,10.132,23.010
0.429,-2.172,-1.067,-1.160,-29.663,60.913
0.360,-1.992,-1.152,6.348,-56.946,98.877
0.287,-1.749,-1.180,21.240,-82.520,126.099
0.269,-1.521,-0.973,42.725,-110.413,143.982
0.241,-1.282,-0.695,63.354,-134.216,160.156
0.273,-0.966,-0.555,77.515,-151.245,175.598
0.297,-0.732,-0.423,87.463,-165.405,184.937
0.334,-0.476,-0.145,98.022,-186.462,190.369
0.374,-0.120,0.215,93.323,-210.632,198.364
0.447,0.165,0.481,67.810,-224.670,205.750
0.557,0.405,0.646,35.461,-227.173,212.097
0.612,0.566,0.827,4.028,-222.107,217.712
0.692,0.958,0.965,-26.123,-204.285,224.915
0.872,1.421,1.356,-58.899,-177.673,225.769
0.968,1.842,1.696,-65.857,-127.930,213.501
0.949,2.131,1.465,-86.609,-58.777,191.284
1.006,2.379,1.358,-118.835,-10.681,165.955
1.069,2.551,1.436,-98.938,26.062,134.460
1.101,2.586,1.306,-102.600,61.401,100.525
1.146,2.542,1.100,-113.403,89.966,65.369
1.190,2.504,0.886,-100.769,110.962,24.414
1.189,2.419,0.621,-85.632,120.483,-19.531
1.087,2.199,0.414,-71.960,122.253,-64.636
0.989,1.870,0.333,-48.035,118.713,-108.643
0.917,1.753,0.219,-26.062,107.361,-149.475
0.731,1.212,0.203,-0.183,90.881,-189.148
0.677,1.078,0.180,15.869,83.252,-214.233
0.593,0.879,0.064,29.419,79.041,-235.107
0.458,0.584,-0.046,49.744,76.172,-255.981
0.321,0.224,-0.129,58.655,81.482,-269.470
0.219,-0.285,-0.150,76.660,90.088,-277.161
0.243,-0.615,-0.142,88.074,99.854,-275.330
0.305,-0.888,-0.267,73.914,113.647,-260.620
0.322,-1.182,-0.431,45.105,130.066,-235.901
0.261,-1.406,-0.638,16.663,147.400,-204.407
0.222,-1.592,-0.906,0.305,155.823,-172.729
0.203,-1.811,-1.059,-11.963,152.039,-141.174
0.224,-1.834,-1.190,-20.264,136.230,-109.558
0.298,-1.889,-1.252,-24.048,109.985,-81.116
0.359,-1.805,-1.270,-25.391,76.050,-50.110
0.362,-1.687,-1.222,-23.315,43.335,-18.921
0.325,-1.563,-1.220,-13.611,12.451,6.531
0.353,-1.439,-1.209,-0.916,-17.822,27.771
0.373,-1.357,-1.109,17.395,-48.462,47.729
0.354,-1.211,-1.049,36.743,-75.256,67.627
0.289,-1.069,-0.927,54.077,-100.403,83.374
0.210,-0.859,-0.813,66.956,-122.192,94.177
0.251,-0.771,-0.687,76.599,-137.146,100.098
0.296,-0.603,-0.513,82.397,-149.780,105.408
0.347,-0.550,-0.448,79.651,-158.752,109.924
0.362,-0.460,-0.416,75.073,-167.419,113.708
0.335,-0.285,-0.275,73.364,-178.406,116.943
0.379,-0.143,-0.108,68.359,-189.331,118.896
0.438,-0.019,0.064,60.913,-198.242,119.568
0.404,0.184,0.031,44.373,-204.163,121.765
0.480,0.264,0.215,45.471,-208.862,117.126
0.523,0.280,0.372,40.039,-209.473,115.601
0.491,0.461,0.356,31.677,-204.285,116.455
0.513,0.564,0.441,35.400,-197.327,111.145
0.575,0.632,0.547,45.410,-190.063,101.624
0.581,0.638,0.486,49.866,-180.603,89.661
0.543,0.751,0.538,57.312,-173.340,76.904
0.519,0.667,0.516,60.364,-166.931,62.134
0.599,0.638,0.544,72.632,-161.377,45.349
0.605,0.607,0.610,85.571,-156.189,30.457
0.661,0.630,0.682,88.440,-147.827,18.982
0.702,0.662,0.724,84.839,-139.526,9.033
0.691,0.652,0.729,77.881,-133.179,0.793
0.680,0.620,0.700,68.909,-127.380,-6.714
0.690,0.571,0.693,64.636,-122.314,-16.113
0.687,0.517,0.709,64.453,-118.408,-25.696
0.662,0.494,0.713,59.875,-114.746,-34.058
0.644,0.412,0.698,52.002,-111.694,-43.030
0.641,0.344,0.707,46.936,-109.375,-51.208
0.646,0.309,0.718,47.729,-108.215,-58.350
0.645,0.267,0.735,54.321,-107.727,-66.284
0.652,0.195,0.783,60.669,-106.812,-73.669
0.653,0.113,0.797,59.631,-105.042,-78.247
0.637,0.061,0.765,55.542,-101.990,-80.811
0.631,0.034,0.773,53.284,-98.083,-82.764
0.630,0.012,0.773,49.072,-93.933,-84.351
0.637,-0.038,0.764,41.199,-89.783,-84.412
0.640,-0.082,0.748,30.212,-85.571,-82.886
0.640,-0.112,0.754,18.799,-82.214,-81.116
0.650,-0.149,0.766,8.667,-79.651,-79.590
0.647,-0.161,0.776,1.709,-78.430,-78.613
0.637,-0.166,0.794,-1.343,-79.468,-78.064
0.627,-0.176,0.806,-2.441,-81.543,-77.942
0.596,-0.217,0.806,-1.526,-82.642,-78.186
0.552,-0.281,0.833,3.235,-82.214,-78.186
0.562,-0.256,0.825,4.456,-80.627,-75.439
0.568,-0.256,0.802,3.784,-79.346,-72.998
0.573,-0.270,0.800,1.587,-77.637,-71.106
0.567,-0.293,0.798,-4.028,-75.317,-69.031
0.559,-0.320,0.796,-11.047,-73.364,-66.956
0.556,-0.330,0.800,-16.418,-72.083,-64.941
0.563,-0.251,0.818,-17.578,-72.021,-64.026
0.504,-0.392,0.881,-13.733,-74.707,-66.223
0.471,-0.429,0.934,-12.268,-75.928,-64.453
0.458,-0.389,0.923,-13.000,-76.111,-61.951
0.457,-0.341,0.944,-7.019,-77.271,-60.669
0.412,-0.324,0.959,-4.761,-74.890,-59.753
0.439,-0.323,0.913,-4.944,-70.740,-59.570
0.434,-0.351,0.906,-1.099,-67.200,-60.059
0.468,-0.393,0.882,6.836,-64.941,-60.608
0.441,-0.432,0.898,9.094,-62.317,-59.753
0.423,-0.452,0.896,6.836,-61.218,-59.082
0.400,-0.464,0.910,9.705,-62.744,-60.791
0.396,-0.556,0.978,15.625,-65.491,-62.134
0.389,-0.555,1.046,12.329,-66.223,-57.190
0.366,-0.442,0.980,0.549,-65.796,-50.232
0.353,-0.399,0.938,1.648,-66.345,-46.936
,,,,,
-0.734,-0.877,0.973,-6.348,28.259,49.072
-0.732,-0.905,0.985,-13.672,33.142,55.725
-0.734,-0.907,0.999,-21.301,39.001,63.354
-0.728,-0.866,0.995,-27.527,45.898,70.801
-0.717,-0.823,0.980,-28.137,52.856,78.125
-0.716,-0.815,0.975,-25.208,58.533,85.205
-0.718,-0.815,0.988,-19.165,62.317,91.125
-0.708,-0.808,1.009,-11.902,65.430,95.703
-0.697,-0.807,1.001,-4.761,68.359,99.365
-0.694,-0.819,1.011,-1.099,69.397,102.661
-0.691,-0.821,1.016,1.831,69.458,105.713
-0.672,-0.834,1.035,3.906,69.580,108.582
-0.652,-0.844,1.065,2.075,70.007,111.572
-0.641,-0.848,1.084,-5.310,71.289,115.540
-0.641,-0.866,1.105,-12.390,73.242,120.178
-0.636,-0.901,1.151,-14.404,75.439,125.122
-0.631,-0.907,1.205,-15.259,78.308,131.104
-0.615,-0.856,1.244,-19.409,82.031,137.756
-0.544,-0.817,1.281,-21.851,86.304,142.395
-0.629,-0.929,1.353,-21.545,89.294,147.034
-0.619,-0.644,1.192,-3.235,93.079,153.381
-0.581,-0.627,1.438,-0.610,90.881,153.564
-0.562,-0.832,1.439,-12.634,97.107,151.733
-0.584,-0.852,1.348,-21.606,105.530,152.283
-0.593,-0.894,1.528,-16.724,106.323,152.344
-0.630,-0.955,1.586,-21.667,110.046,153.625
-0.671,-0.943,1.495,-34.485,121.155,156.311
-0.674,-0.824,1.478,-39.063,130.798,159.912
-0.685,-0.758,1.494,-39.856,140.869,158.752
-0.691,-0.807,1.420,-43.396,155.396,156.799
-0.660,-0.677,1.314,-39.124,169.006,157.288
-0.626,-0.706,1.269,-35.767,176.697,155.884
-0.607,-0.723,1.276,-32.043,180.115,155.579
-0.562,-0.732,1.266,-26.184,181.274,156.067
-0.543,-0.733,1.250,-20.447,180.542,155.579
-0.579,-0.769,1.215,-20.569,178.589,155.090
-0.572,-0.746,1.202,-26.794,178.040,155.212
-0.569,-0.679,1.187,-33.875,181.030,154.663
-0.564,-0.689,1.133,-42.542,185.608,152.710
-0.574,-0.686,1.111,-51.514,189.758,151.245
-0.550,-0.597,1.125,-59.937,193.848,150.757
-0.536,-0.490,1.118,-66.772,200.623,149.597
-0.512,-0.426,1.045,-71.777,210.632,146.790
-0.517,-0.257,0.939,-78.308,220.825,142.944
-0.398,-0.167,0.846,-72.998,226.257,135.132
-0.343,-0.166,0.888,-63.721,227.295,125.183
-0.338,-0.102,0.868,-57.251,232.422,118.896
-0.289,-0.090,0.850,-45.898,239.502,110.413
-0.320,-0.179,0.787,-40.588,246.460,102.112
-0.253,-0.071,0.682,-42.603,254.272,96.130
-0.224,0.085,0.638,-46.936,259.399,90.698
-0.171,0.258,0.522,-39.063,262.451,79.346
-0.141,0.072,0.410,-23.987,260.620,60.669
-0.061,0.005,0.438,-17.944,255.310,52.368
-0.048,0.142,0.455,-21.545,252.991,51.270
-0.034,0.176,0.387,-18.372,254.944,42.542
-0.004,0.077,0.285,-24.292,256.531,32.593
-0.001,0.088,0.157,-29.663,257.629,24.048
0.022,0.016,0.057,-36.011,257.202,15.015
-0.043,-0.062,-0.018,-38.818,257.507,5.188
-0.012,-0.103,-0.128,-46.387,262.268,-2.258
0.078,-0.129,-0.278,-60.181,268.005,-7.812
-0.070,-0.097,-0.434,-80.322,272.705,-8.057
0.036,-0.345,-0.610,-107.910,272.888,-13.000
0.228,-0.669,-0.711,-144.470,264.648,-19.714
0.407,-1.211,-0.984,-154.175,266.357,-25.024
0.427,-1.726,-1.266,-146.057,265.503,-11.658
-0.099,-1.274,-1.443,-179.321,252.075,22.034
-0.366,-1.386,-1.936,-93.750,241.882,0.427
0.076,-1.528,-1.885,4.456,206.665,-30.396
0.534,-1.863,-1.793,-24.780,137.573,-14.404
0.248,-2.162,-1.362,5.554,48.401,9.338
0.158,-2.491,-0.801,22.583,-8.118,48.523
0.142,-2.316,-0.657,-27.161,-21.851,111.389
-0.031,-2.235,-1.112,-64.087,-33.264,170.654
-0.109,-1.874,-1.166,-59.082,-50.110,225.647
-0.213,-1.335,-0.854,-35.339,-79.163,266.174
-0.289,-1.043,-0.174,-3.906,-106.445,284.851
-0.252,-0.431,0.150,-4.028,-116.028,302.429
-0.224,0.263,0.184,-11.902,-126.038,318.909
-0.137,0.801,0.353,-7.507,-140.869,330.750
-0.025,1.471,0.589,-10.254,-151.245,335.144
0.140,1.916,0.818,-5.066,-152.161,321.838
0.383,2.578,0.935,15.015,-144.409,294.373
0.505,2.995,1.193,18.799,-122.192,251.587
0.861,3.572,1.920,-4.761,-58.716,207.153
0.715,4.000,1.254,-57.678,33.081,153.137
0.822,4.000,1.059,-58.228,54.626,75.195
0.856,4.000,0.692,65.552,60.547,-3.418
0.805,3.999,1.138,20.142,88.440,-52.063
0.807,3.425,0.894,-67.749,114.075,-100.342
0.695,2.931,0.665,-23.926,113.953,-163.025
0.568,2.423,0.656,5.676,109.741,-216.248
0.421,1.830,0.373,-6.165,111.328,-261.414
0.260,1.256,0.310,7.874,111.816,-300.049
0.128,0.672,0.193,22.156,114.136,-328.430
0.084,-0.007,-0.091,11.414,124.451,-342.834
0.148,-0.860,-0.056,-49.255,137.512,-335.510
-0.046,-1.075,-0.289,-62.256,152.100,-314.636
-0.099,-1.573,-0.268,-64.941,195.496,-288.513
-0.194,-2.364,-1.241,-7.141,206.726,-274.536
-0.214,-1.990,-1.305,15.747,195.129,-235.962
-0.153,-2.616,-1.476,32.776,165.222,-202.576
0.006,-3.133,-1.380,55.969,117.126,-169.678
0.145,-3.075,-1.575,19.287,66.345,-104.980
0.285,-3.279,-1.755,4.089,17.090,-43.884
0.206,-3.062,-1.571,1.953,-33.081,15.320
0.077,-2.781,-1.346,-10.254,-77.026,74.524
0.067,-2.621,-1.357,-12.817,-101.135,120.361
0.028,-2.221,-1.212,-1.404,-133.179,163.147
-0.102,-1.808,-1.003,12.329,-162.781,201.416
-0.111,-1.381,-0.795,30.151,-185.730,226.501
-0.087,-0.987,-0.467,57.739,-207.764,243.164
0.008,-0.463,-0.117,74.768,-230.225,256.409
0.096,0.020,0.283,88.623,-248.779,263.428
0.158,0.521,0.620,90.027,-262.146,262.085
0.250,0.714,0.906,84.229,-267.273,256.104
0.342,0.950,1.232,59.448,-266.541,256.836
0.516,1.564,1.677,22.461,-252.075,263.062
,,,,,
0.819,2.865,2.222,-85.022,-113.403,241.272
0.881,3.545,2.233,-160.156,-41.138,211.060
0.816,4.000,1.760,-143.616,19.409,151.917
1.048,4.000,1.870,-72.388,65.979,76.050
1.355,3.848,1.578,-35.889,97.656,3.540
1.264,3.998,1.270,38.330,114.502,-62.439
1.163,3.524,1.242,-14.099,135.498,-114.502
0.889,2.870,0.816,-50.293,143.127,-176.270
0.729,2.236,0.734,10.925,133.911,-242.859
0.591,1.646,0.503,31.555,132.141,-292.603
0.417,1.005,0.369,49.988,130.127,-328.186
0.159,0.326,0.068,68.970,134.888,-351.196
0.103,-0.553,-0.201,57.800,152.466,-361.206
0.302,-1.271,-0.086,18.372,176.025,-347.046
0.134,-2.435,-0.332,-4.883,199.707,-316.528
0.064,-2.370,-1.391,-6.592,239.624,-269.958
0.072,-3.110,-1.661,-96.191,249.084,-205.444
-0.163,-3.298,-1.447,-77.942,222.290,-153.137
-0.092,-3.319,-1.378,-2.380,187.012,-105.347
-0.043,-3.366,-1.811,-32.043,152.344,-34.912
-0.057,-2.943,-2.137,-66.589,106.873,41.443
0.047,-2.727,-1.936,-50.842,40.527,96.436
0.197,-2.730,-1.445,-20.386,-20.874,136.108
0.178,-2.388,-1.301,2.319,-62.622,177.979
0.002,-1.836,-1.418,38.696,-95.825,206.360
-0.045,-1.391,-1.286,75.867,-134.216,223.022
-0.080,-0.953,-0.776,110.291,-171.692,235.352
-0.069,-0.424,-0.367,134.094,-199.158,246.216
0.002,0.209,-0.047,140.442,-217.529,252.869
0.024,0.591,0.403,133.118,-241.211,249.207
0.121,0.802,0.742,107.300,-253.845,242.798
0.223,0.983,1.087,61.157,-250.122,246.521
0.310,1.656,1.994,1.099,-228.027,263.672
0.477,2.309,1.984,-35.034,-155.334,265.808
0.491,2.952,1.567,-112.244,-71.838,243.652
0.697,3.617,1.619,-144.104,-11.780,205.444
0.836,3.619,1.312,-86.853,35.950,141.846
1.319,3.837,0.986,-0.183,63.232,69.946
1.135,4.000,1.577,19.592,90.393,18.005
1.121,3.974,0.689,-148.865,122.498,-11.536
0.951,3.447,0.535,-108.887,106.750,-81.787
0.862,2.813,0.342,-24.536,83.130,-169.556
0.802,2.236,0.365,9.888,61.951,-235.657
0.580,1.547,0.359,44.373,43.640,-287.964
0.213,1.046,0.175,57.617,36.072,-320.251
0.139,0.367,0.051,58.105,48.462,-342.163
0.083,-0.157,0.082,74.829,65.796,-355.225
0.007,-0.834,-0.041,85.693,88.745,-357.056
-0.007,-1.546,-0.337,67.871,120.422,-343.140
0.078,-1.929,-0.575,8.118,143.982,-303.345
0.102,-2.814,-0.792,-74.707,160.950,-242.371
-0.094,-3.148,-1.201,-79.590,176.086,-176.636
0.096,-3.261,-1.793,-58.411,172.791,-108.276
0.106,-2.641,-1.869,-92.896,128.296,-28.015
0.114,-2.293,-1.883,-83.435,73.975,22.827
0.186,-2.548,-1.697,-79.651,23.865,51.025
0.421,-2.739,-1.272,-63.660,-26.367,79.651
0.350,-2.410,-1.211,-34.668,-67.688,123.047
0.217,-1.984,-1.425,-1.160,-95.459,158.691
0.222,-1.669,-1.234,37.781,-129.150,181.274
0.167,-1.369,-0.734,74.707,-165.833,198.853
0.154,-1.003,-0.520,110.291,-184.570,213.135
0.125,-0.658,-0.404,131.531,-197.876,223.083
0.149,-0.265,-0.053,137.024,-218.201,232.605
0.199,0.302,0.464,126.953,-236.938,240.662
0.305,0.717,0.838,99.670,-243.896,246.338
0.405,0.914,1.069,61.401,-236.023,249.207
0.710,1.558,2.726,19.043,-210.266,255.859
0.750,2.530,1.777,-47.424,-130.249,260.193
0.736,2.567,1.620,-139.648,-69.946,232.422
0.819,2.948,1.863,-150.452,-5.310,197.266
0.977,3.720,1.454,-204.407,60.242,171.082
0.949,3.785,1.074,-186.096,94.177,111.938
1.057,3.743,0.830,-151.855,115.295,42.480
1.100,3.718,0.626,-111.145,121.338,-26.794
0.955,3.330,0.347,-60.852,110.596,-97.229
0.847,2.662,0.298,3.601,91.309,-167.114
0.720,2.123,0.286,50.354,72.937,-222.473
0.615,1.644,0.261,84.656,57.922,-265.686
0.479,1.094,0.283,108.948,50.049,-297.180
0.286,0.722,0.070,114.746,52.673,-313.110
0.180,0.227,0.041,111.145,58.594,-318.542
0.147,-0.118,0.112,106.323,66.467,-313.965
0.120,-0.602,0.180,111.084,80.444,-304.199
0.217,-0.728,0.093,77.332,102.661,-281.433
0.299,-1.047,-0.169,9.338,120.300,-244.812
0.368,-1.028,-0.417,-76.782,131.531,-194.641
0.215,-1.267,-0.476,-152.466,124.390,-143.372
0.274,-1.220,-0.713,-157.471,116.455,-109.314
0.367,-0.873,-0.806,-173.096,105.957,-77.637
0.429,-0.714,-0.789,-171.326,88.379,-61.279
0.487,-0.647,-0.707,-159.668,65.552,-54.443
0.481,-0.813,-0.701,-154.541,43.518,-49.255
0.627,-0.761,-0.699,-133.728,25.085,-46.021
0.576,-0.801,-0.579,-100.098,-1.038,-44.250
0.570,-0.749,-0.539,-67.383,-18.616,-42.053
0.548,-0.790,-0.526,-42.603,-32.349,-39.490
0.514,-0.850,-0.571,-17.944,-44.189,-39.307
0.517,-0.905,-0.550,2.319,-54.810,-37.415
0.508,-0.932,-0.471,13.000,-64.209,-33.203
0.526,-0.897,-0.422,15.625,-66.772,-26.245
0.521,-0.892,-0.439,15.503,-67.505,-18.066
0.552,-0.876,-0.442,8.728,-69.580,-7.629
0.598,-0.823,-0.382,1.587,-74.646,2.502
0.617,-0.756,-0.322,-0.427,-80.627,10.559
0.666,-0.668,-0.302,-3.540,-84.717,17.334
0.695,-0.568,-0.276,-2.563,-91.309,23.254
0.714,-0.490,-0.230,0.610,-99.670,27.466
0.749,-0.404,-0.185,5.371,-106.567,29.968
0.795,-0.394,-0.130,12.329,-112.610,29.907
0.818,-0.382,-0.086,19.775,-116.882,28.381
0.835,-0.371,-0.030,29.724,-118.774,26.489
0.862,-0.393,0.082,44.189,-118.530,24.475
0.870,-0.417,0.065,51.758,-115.051,23.560
0.827,-0.340,0.047,50.476,-115.295,25.208
0.807,-0.268,0.066,55.908,-116.272,24.719
0.824,-0.251,0.143,63.782,-115.784,22.949
0.833,-0.312,0.190,73.608,-114.380,21.179
0.906,-0.197,0.210,100.769,-114.441,15.747
,,,,,
-0.623,-0.715,1.225,-10.254,61.584,70.557
-0.643,-0.740,1.248,-13.611,64.636,73.730
-0.663,-0.730,1.266,-16.602,68.481,77.209
-0.660,-0.710,1.260,-19.348,73.669,81.055
-0.658,-0.700,1.222,-19.104,80.322,84.900
-0.639,-0.666,1.211,-16.907,86.182,89.355
-0.631,-0.667,1.218,-10.559,90.698,92.773
-0.626,-0.676,1.235,-4.272,94.543,95.337
-0.630,-0.700,1.257,0.549,98.145,98.389
-0.629,-0.740,1.266,2.197,102.417,101.501
-0.620,-0.786,1.279,0.183,105.713,105.713
-0.602,-0.803,1.303,-5.432,108.459,111.145
-0.584,-0.790,1.307,-10.925,111.145,116.272
-0.574,-0.801,1.317,-16.296,113.831,120.605
-0.561,-0.751,1.303,-22.156,116.638,125.549
-0.545,-0.661,1.291,-23.499,120.239,129.150
-0.527,-0.637,1.295,-22.278,124.084,130.737
-0.501,-0.647,1.308,-18.311,128.418,131.897
-0.459,-0.644,1.314,-13.367,133.362,134.644
-0.417,-0.661,1.291,-10.132,138.306,137.268
-0.383,-0.668,1.294,-10.742,142.456,139.587
-0.364,-0.713,1.325,-17.761,144.409,141.357
-0.352,-0.851,1.353,-27.161,144.897,142.334
-0.387,-0.763,1.367,-31.860,146.301,144.470
-0.349,-0.661,1.364,-26.489,149.414,146.118
-0.290,-0.553,1.332,-34.058,156.860,146.057
-0.245,-0.435,1.254,-37.109,169.861,142.822
-0.201,-0.375,1.095,-33.020,184.631,140.015
-0.169,-0.306,0.955,-26.611,193.481,138.062
-0.064,-0.333,0.914,-14.038,195.312,135.559
-0.009,-0.409,0.992,-5.432,189.941,134.338
-0.001,-0.534,1.165,1.038,179.626,133.606
-0.045,-0.602,1.309,-1.343,172.546,133.301
-0.057,-0.615,1.279,-14.465,175.720,132.141
-0.043,-0.538,1.211,-36.499,182.739,131.409
-0.074,-0.352,1.182,-58.594,188.843,131.958
-0.046,-0.345,1.157,-70.557,195.435,129.089
-0.102,-0.224,1.137,-74.463,205.017,125.610
-0.079,-0.101,1.092,-78.003,217.224,120.300
-0.136,0.083,1.068,-79.712,226.501,112.488
-0.088,0.085,1.121,-74.341,231.262,100.403
-0.108,0.041,1.327,-68.726,233.459,90.393
-0.209,0.354,1.434,-65.491,241.455,85.999
-0.211,0.588,1.406,-60.486,257.385,70.313
-0.254,0.440,1.324,-66.284,272.949,48.889
-0.339,0.259,1.246,-63.965,290.466,28.442
-0.366,0.092,1.171,-61.646,309.143,12.878
-0.470,0.416,1.108,-65.979,329.773,5.676
-0.507,0.570,0.861,-65.247,351.929,-10.681
-0.522,0.609,0.594,-60.791,366.821,-34.973
-0.547,0.562,0.343,-36.072,371.643,-60.608
-0.541,0.443,0.124,0.366,372.070,-83.801
-0.598,0.331,-0.027,26.001,372.375,-99.426
-0.697,0.295,-0.179,41.260,372.253,-107.178
-0.714,0.155,-0.253,36.072,369.873,-114.441
-0.379,-0.420,-0.610,36.316,366.455,-122.620
-0.341,-0.859,-0.705,4.028,352.478,-108.521
-0.488,-1.533,-0.863,-125.366,341.858,-73.730
-0.899,-1.777,-1.523,-137.573,380.310,-59.753
-0.782,-1.900,-3.047,35.767,422.913,-64.209
-0.364,-1.549,-3.565,17.639,340.820,-66.406
-0.020,-2.390,-3.406,48.828,161.316,-72.998
-0.364,-2.740,-1.047,4.883,-15.747,-27.405
-0.211,-2.121,-0.129,-0.122,-51.880,52.307
-0.176,-2.146,-1.333,-121.216,-5.676,108.765
-0.230,-2.273,-2.521,-117.126,-7.385,152.405
-0.342,-1.512,-2.822,-60.242,-64.270,209.961
-0.503,-0.739,-2.188,-8.789,-140.747,246.216
-0.535,-1.149,-0.743,60.730,-201.050,238.953
-0.390,-0.839,-0.125,102.722,-216.736,237.122
-0.323,-0.291,-0.227,99.731,-222.717,243.530
-0.233,0.248,-0.245,104.614,-244.934,246.582
0.013,0.395,1.384,112.183,-281.006,244.934
0.526,0.648,2.372,188.599,-277.222,238.098
0.591,1.221,2.349,121.948,-258.850,235.596
0.981,2.119,2.923,9.583,-232.483,245.361
1.208,2.655,2.645,-124.390,-153.564,254.211
0.823,3.050,2.558,-319.153,-32.043,246.094
1.043,4.000,1.858,-355.530,71.655,189.514
1.268,4.000,1.755,-217.407,124.146,89.966
1.401,4.000,1.762,-86.853,156.921,-16.357
1.273,3.827,1.342,-76.599,180.176,-93.872
0.850,3.374,0.655,-37.048,181.580,-174.194
0.622,2.722,0.533,89.722,173.218,-252.625
0.458,1.843,0.494,149.231,175.415,-309.082
0.193,1.062,0.097,153.870,184.692,-348.450
-0.231,0.351,-0.281,163.147,202.209,-374.512
-0.378,-0.546,-0.793,151.184,231.506,-382.141
-0.288,-1.187,-1.192,79.102,260.864,-367.859
-0.007,-2.896,-0.634,-8.789,290.466,-327.026
-0.638,-2.515,-1.520,18.005,287.048,-276.733
-0.701,-2.668,-2.180,-12.878,270.081,-205.139
-0.597,-3.114,-2.653,-59.265,236.389,-134.094
-0.627,-3.164,-2.720,-95.154,154.297,-58.838
-0.418,-3.181,-2.686,-125.061,74.585,9.216
-0.177,-3.123,-2.777,-139.404,16.418,67.078
-0.235,-2.868,-2.748,-127.075,-46.265,116.516
-0.280,-2.364,-2.497,-107.788,-110.962,164.307
-0.320,-1.851,-2.203,-74.219,-163.696,201.050
-0.378,-1.627,-1.857,-6.897,-214.844,211.121
-0.435,-1.464,-1.431,68.115,-263.550,213.928
-0.547,-1.189,-0.961,117.737,-301.575,224.487
-0.522,-0.744,-0.589,137.512,-324.463,236.450
-0.353,-0.302,-0.096,148.621,-344.849,243.225
-0.163,-0.110,1.584,162.231,-362.122,246.948
0.190,0.289,1.792,182.861,-330.750,251.038
0.197,0.674,1.867,62.744,-305.298,268.005
0.251,1.421,2.286,-13.733,-278.931,283.813
0.866,1.863,2.991,-51.208,-231.567,276.123
0.944,3.146,2.674,-120.361,-160.034,257.568
0.914,3.960,2.568,-242.920,-70.679,232.422
1.158,4.000,2.150,-252.747,4.089,170.898
1.103,4.000,2.154,-125.916,48.706,78.003
1.195,4.000,2.071,-87.891,84.229,-10.620
1.083,3.982,1.445,-73.486,103.210,-98.267
0.935,3.366,1.314,12.695,110.535,-187.134
0.816,2.566,1.057,94.360,117.737,-256.287
0.490,1.930,0.927,153.320,122.620,-308.228
0.214,1.266,0.659,164.429,135.254,-342.102
,,,,,
-0.274,-3.016,-1.939,-114.380,310.181,-172.729
-0.506,-2.695,-2.533,-152.283,255.371,-96.619
-0.375,-2.421,-2.380,-151.855,175.964,-45.654
-0.069,-2.970,-2.198,-135.071,113.708,-17.944
0.149,-2.867,-2.129,-132.874,57.495,25.330
0.194,-2.622,-2.082,-117.676,3.174,66.589
0.105,-2.379,-2.091,-91.248,-42.908,98.938
-0.052,-2.170,-2.007,-50.232,-88.013,126.404
-0.123,-1.892,-1.740,-5.554,-133.789,154.480
-0.164,-1.566,-1.455,41.870,-170.776,179.260
-0.138,-1.283,-1.099,77.759,-200.012,197.083
-0.080,-1.112,-0.854,106.628,-221.497,207.214
-0.069,-0.894,-0.610,116.272,-240.234,217.285
-0.038,-0.484,-0.207,115.356,-262.024,231.384
0.081,-0.044,0.283,106.445,-283.875,244.385
0.230,0.385,1.206,88.928,-300.476,251.038
0.449,0.747,1.508,108.643,-281.799,245.605
0.562,1.037,1.578,51.514,-254.211,240.417
0.670,1.660,1.953,-23.926,-226.196,246.765
1.055,2.117,2.432,-41.992,-173.279,232.971
0.930,2.859,2.329,-135.376,-90.210,223.145
0.964,3.285,1.996,-214.844,-3.174,193.787
1.052,3.838,1.706,-161.072,51.819,128.723
1.230,3.904,1.692,-134.338,89.417,59.753
1.296,3.669,1.378,-128.662,104.919,-12.390
1.142,3.420,1.042,-79.834,102.417,-84.778
0.986,2.941,0.800,-1.404,101.501,-158.142
0.885,2.251,0.755,66.467,101.440,-220.703
0.712,1.704,0.695,112.915,103.333,-268.127
0.491,1.225,0.539,139.099,107.971,-301.392
0.289,0.674,0.380,151.978,120.911,-325.134
0.154,0.163,0.257,174.377,139.221,-340.637
0.067,-0.342,0.103,158.142,161.194,-337.402
0.042,-0.757,0.021,70.251,177.307,-317.749
0.061,-0.832,-0.525,17.273,189.697,-293.335
0.283,-1.686,0.311,-97.656,212.341,-246.948
0.037,-2.023,-0.321,-81.177,239.136,-219.971
0.033,-2.206,-1.612,-61.218,262.695,-180.481
-0.157,-2.327,-1.740,-223.267,241.455,-105.896
-0.300,-2.156,-1.887,-176.331,188.721,-67.871
0.008,-1.859,-1.594,-126.892,137.390,-54.565
0.164,-2.034,-1.516,-105.530,99.060,-37.231
0.221,-2.188,-1.632,-61.523,68.359,-16.174
0.152,-2.112,-1.717,-47.974,20.813,17.212
0.208,-2.052,-1.568,-24.353,-29.419,46.814
0.138,-1.895,-1.370,5.371,-70.618,77.576
0.029,-1.704,-1.302,28.320,-104.004,108.398
0.046,-1.581,-1.183,47.729,-131.226,131.531
0.052,-1.423,-0.963,63.171,-157.898,150.391
0.021,-1.202,-0.756,77.637,-181.396,165.344
0.026,-0.899,-0.621,77.820,-197.205,179.443
0.024,-0.695,-0.423,75.439,-211.182,191.101
0.031,-0.483,-0.211,71.594,-225.769,202.209
0.086,-0.188,0.025,67.566,-237.915,212.524
0.094,0.270,0.420,60.059,-250.000,218.628
0.243,0.713,0.670,76.355,-247.803,218.262
0.417,0.744,0.790,74.463,-238.586,210.083
0.364,0.907,0.735,51.025,-232.422,206.421
0.489,1.122,1.017,39.001,-216.064,199.280
0.589,0.999,1.198,39.063,-183.777,182.983
0.513,1.257,1.367,-1.343,-140.503,172.546
0.497,1.546,0.921,-87.524,-96.985,166.626
0.565,1.558,0.672,-76.843,-75.378,133.728
0.633,1.568,0.732,-9.277,-68.909,93.750
0.693,1.542,0.733,42.419,-66.040,59.265
0.694,1.463,0.670,81.543,-70.251,31.128
0.728,1.313,0.580,105.164,-74.097,10.071
0.746,1.158,0.591,115.845,-75.562,-6.287
0.705,1.008,0.501,135.315,-80.994,-23.682
0.631,1.200,0.403,155.884,-87.463,-43.335
0.534,0.998,0.214,185.120,-85.938,-78.125
0.558,0.395,0.488,213.013,-88.074,-112.305
0.572,-0.057,0.589,208.313,-85.571,-128.906
0.771,-0.449,0.959,176.758,-77.393,-122.070
0.658,0.135,0.638,102.234,-61.279,-97.717
0.677,0.191,0.401,44.800,-49.011,-94.727
0.725,0.118,0.484,37.476,-46.997,-101.746
0.710,0.140,0.441,33.691,-46.692,-107.544
0.732,0.146,0.407,14.160,-44.800,-107.666
0.728,0.110,0.362,15.198,-48.767,-109.192
0.688,0.026,0.382,24.963,-54.565,-111.023
0.658,-0.062,0.384,27.283,-57.495,-110.718
0.679,-0.162,0.391,32.593,-59.631,-110.168
0.749,-0.196,0.423,36.926,-59.753,-108.887
0.766,-0.259,0.435,37.842,-59.265,-106.934
0.777,-0.282,0.472,34.729,-59.265,-103.699
0.809,-0.300,0.505,24.475,-57.007,-99.609
0.806,-0.322,0.521,12.695,-54.993,-96.008
0.794,-0.328,0.525,1.221,-53.955,-92.957
0.798,-0.324,0.523,-7.751,-53.833,-91.125
0.793,-0.326,0.548,-6.775,-55.786,-90.576
0.778,-0.316,0.581,-3.418,-58.350,-89.844
0.792,-0.335,0.595,-4.456,-60.913,-88.501
0.800,-0.377,0.623,-5.737,-64.331,-86.121
0.790,-0.397,0.648,-4.822,-67.566,-83.313
0.771,-0.421,0.674,-2.441,-68.359,-80.566
0.767,-0.455,0.703,1.160,-68.237,-77.942
0.758,-0.487,0.728,2.625,-66.223,-74.524
0.733,-0.507,0.745,3.296,-62.988,-70.984
0.723,-0.519,0.767,2.747,-58.167,-67.444
0.734,-0.523,0.793,0.244,-53.162,-63.477
0.750,-0.533,0.804,-1.587,-49.316,-59.753
0.750,-0.520,0.802,-1.160,-46.997,-56.213
0.739,-0.496,0.788,0.916,-45.349,-52.612
0.733,-0.490,0.776,5.066,-45.105,-49.194
0.722,-0.503,0.772,9.827,-46.143,-45.532
0.710,-0.532,0.774,13.428,-47.363,-42.236
0.686,-0.547,0.786,15.381,-47.913,-39.612
0.659,-0.562,0.796,17.029,-47.180,-37.292
0.651,-0.571,0.798,16.541,-44.556,-35.034
0.636,-0.584,0.795,12.634,-40.405,-32.654
0.631,-0.569,0.795,9.644,-36.377,-30.396
0.637,-0.534,0.786,7.690,-33.020,-27.710
0.641,-0.514,0.772,5.676,-30.884,-25.085
0.627,-0.498,0.754,3.601,-29.907,-22.827
0.646,-0.471,0.727,2.563,-30.518,-20.691
0.658,-0.451,0.716,3.784,-32.410,-18.921
0.656,-0.440,0.711,6.226,-35.156,-17.700
0.640,-0.436,0.707,8.545,-37.720,-16.724
,,,,,
-0.248,-1.198,-2.265,-8.789,229.126,-108.093
-0.208,-1.310,-2.320,59.143,182.922,-116.394
0.078,-1.619,-2.128,13.184,113.159,-91.858
0.068,-1.897,-1.372,20.203,35.645,-55.908
0.068,-1.930,-0.945,37.659,-13.428,-13.000
0.084,-1.792,-1.133,-13.184,-31.738,35.645
0.026,-1.772,-1.595,-35.095,-48.035,76.538
-0.124,-1.695,-1.780,-19.470,-81.055,112.915
-0.188,-1.529,-1.500,3.845,-125.000,143.433
-0.217,-1.364,-1.011,26.855,-164.734,164.673
-0.237,-1.185,-0.672,42.603,-192.078,182.251
-0.325,-0.995,-0.525,51.575,-208.862,199.158
-0.382,-0.810,-0.494,57.983,-226.074,216.064
-0.475,-0.357,-0.222,49.683,-255.859,237.610
-0.327,0.120,1.024,51.392,-286.377,255.798
0.200,0.537,1.190,111.816,-275.330,255.127
0.429,0.946,1.369,62.744,-275.940,250.183
0.616,1.281,1.920,26.978,-274.536,244.873
0.712,1.722,2.563,-63.477,-242.187,245.117
0.659,2.568,1.884,-209.351,-155.579,246.704
0.556,2.946,1.984,-227.173,-70.435,207.642
0.777,3.981,1.991,-138.794,4.028,150.696
1.167,4.000,2.222,-80.078,56.702,84.778
1.269,4.000,1.955,-74.097,86.914,14.160
1.117,4.000,1.707,-62.744,101.624,-56.641
1.014,3.726,1.093,-17.212,112.671,-139.709
0.782,3.207,1.062,52.063,121.948,-212.036
0.700,2.393,1.004,74.890,134.888,-267.883
0.411,1.746,0.684,81.543,139.709,-315.002
0.052,1.097,0.338,105.469,145.874,-355.347
-0.015,0.340,0.219,123.596,164.551,-382.080
-0.089,-0.396,-0.067,113.098,197.266,-388.794
-0.133,-0.870,-0.009,32.227,233.032,-374.023
-0.108,-2.266,-0.957,-75.989,268.799,-341.370
-0.728,-2.816,-1.267,-60.974,280.884,-291.016
-0.579,-2.535,-1.572,57.800,284.729,-245.605
-0.300,-2.945,-1.722,6.470,255.737,-188.538
-0.336,-3.744,-2.541,-65.308,220.154,-120.300
-0.232,-4.000,-3.047,-42.236,151.489,-52.002
-0.061,-3.740,-2.915,-77.148,43.396,26.855
0.166,-3.520,-2.335,-61.157,-41.016,82.520
0.005,-3.187,-2.141,-57.434,-108.521,135.010
-0.257,-2.828,-2.128,-47.363,-158.508,183.044
-0.427,-2.422,-2.046,-20.874,-203.857,224.915
-0.491,-1.707,-1.511,8.789,-255.432,263.000
-0.490,-1.267,-0.773,58.716,-298.767,280.212
-0.477,-0.782,-0.085,93.689,-320.557,289.001
-0.380,-0.090,0.964,110.291,-321.960,297.241
-0.080,0.370,1.275,142.944,-298.645,289.551
0.123,0.718,1.828,89.417,-286.255,293.945
0.270,1.522,2.489,53.650,-265.686,310.486
0.330,2.294,2.833,-3.967,-219.727,311.279
0.841,2.607,3.315,-17.883,-147.400,272.339
1.112,3.932,2.955,-48.035,-66.345,239.197
1.347,4.000,2.628,-182.434,25.269,204.895
1.081,4.000,2.208,-235.596,78.186,146.790
1.011,4.000,1.652,-218.201,112.793,60.913
0.872,4.000,1.581,-128.479,129.150,-52.368
0.935,3.994,1.212,-24.414,129.517,-180.298
0.782,3.130,1.154,75.012,124.695,-274.841
0.249,2.308,0.972,135.803,120.422,-333.679
-0.148,1.519,0.591,153.381,132.568,-376.099
-0.148,0.798,0.556,179.504,160.767,-398.804
-0.341,-0.013,0.122,160.828,197.632,-400.757
-0.651,-0.927,-0.369,98.022,223.999,-384.460
-0.560,-1.491,-0.685,49.255,248.962,-359.680
-0.390,-2.264,-0.314,-31.372,271.912,-309.692
-0.283,-3.058,-1.060,-22.949,301.880,-261.353
-0.418,-3.372,-2.087,-55.054,313.904,-199.402
-0.455,-3.472,-2.995,-94.238,266.357,-123.535
-0.382,-3.506,-3.147,-107.971,171.631,-52.979
-0.336,-3.151,-2.637,-129.028,75.989,13.855
-0.138,-3.172,-2.438,-123.474,10.010,58.960
-0.127,-3.185,-2.493,-101.685,-43.701,96.619
-0.078,-2.588,-2.429,-73.669,-98.633,141.479
-0.138,-2.231,-2.095,-28.198,-152.405,170.166
-0.230,-1.995,-1.662,23.743,-197.998,188.843
-0.331,-1.739,-1.328,67.627,-229.919,204.163
-0.342,-1.410,-1.009,99.060,-253.601,217.529
-0.324,-0.935,-0.603,123.169,-274.719,229.736
-0.266,-0.457,-0.040,135.132,-294.373,239.014
-0.132,0.011,0.545,137.512,-314.026,244.446
0.067,0.308,1.164,110.107,-331.299,252.014
0.376,1.018,2.500,83.374,-316.528,268.616
0.394,1.583,2.041,19.043,-252.869,274.963
0.689,2.182,2.682,-39.551,-218.262,264.099
0.861,2.635,3.095,-123.535,-140.930,263.428
0.709,3.836,2.554,-276.550,-42.542,274.475
0.905,4.000,2.199,-296.326,28.015,221.802
1.065,4.000,1.834,-218.628,67.688,128.723
1.160,4.000,1.551,-178.528,93.689,41.626
0.909,4.000,1.229,-117.798,102.112,-53.223
0.921,3.586,1.057,-23.499,103.394,-149.292
0.800,2.896,0.985,62.500,99.915,-225.769
0.572,2.184,0.785,121.460,94.299,-284.729
0.184,1.606,0.619,165.161,94.482,-328.186
0.031,1.036,0.427,186.035,109.741,-356.445
-0.059,0.314,0.305,204.773,135.437,-372.681
-0.030,-0.517,0.187,180.481,166.687,-366.516
-0.117,-0.916,-0.089,112.610,190.063,-342.590
-0.118,-1.250,-0.270,49.744,204.041,-316.895
0.051,-1.640,0.012,-59.387,224.731,-272.278
0.001,-2.066,-0.361,-69.641,255.005,-233.643
-0.219,-2.395,-1.096,-90.881,269.409,-190.125
-0.254,-2.973,-1.780,-179.443,256.470,-127.258
-0.354,-2.696,-2.101,-211.426,215.515,-62.500
-0.118,-2.145,-2.191,-192.871,162.048,-20.996
0.094,-1.955,-2.018,-147.095,109.802,-10.010
0.186,-2.108,-1.803,-97.473,55.664,-8.179
0.252,-2.569,-1.791,-24.719,12.451,-9.766
0.201,-2.459,-1.753,7.935,-24.841,23.560
0.054,-2.384,-1.759,34.424,-62.012,61.462
0.039,-2.110,-1.730,56.152,-94.360,95.581
0.070,-1.907,-1.481,69.275,-126.953,125.244
0.083,-1.733,-1.222,92.102,-156.860,146.484
0.019,-1.456,-0.984,103.882,-184.692,167.297
-0.017,-1.177,-0.768,101.501,-206.360,184.082
-0.033,-0.778,-0.566,103.882,-224.487,194.458
0.057,-0.405,-0.237,109.253,-245.544,200.684
,,,,,
0.617,0.742,1.535,109.131,-259.949,211.548
0.660,1.375,1.245,2.808,-245.300,219.421
0.747,1.708,1.815,-82.703,-224.854,223.816
0.797,1.618,2.227,-124.756,-169.556,208.313
0.809,1.715,2.024,-161.011,-104.858,187.012
0.710,2.385,1.712,-196.838,-32.593,171.814
0.892,3.003,1.453,-164.001,20.935,135.803
0.934,3.042,1.399,-83.862,51.697,73.120
1.074,2.798,1.232,-24.841,73.486,10.498
1.010,2.618,1.013,4.272,86.548,-44.861
0.962,2.310,0.740,52.429,90.149,-98.755
0.884,1.971,0.659,108.704,90.393,-145.325
0.817,1.492,0.536,134.338,91.797,-181.885
0.798,1.083,0.419,141.479,91.309,-209.473
0.723,0.742,0.246,148.987,89.844,-227.844
0.700,0.391,0.155,160.767,92.896,-240.540
0.699,0.147,0.130,178.406,98.511,-246.704
0.539,-0.104,0.109,183.105,106.689,-243.835
0.522,-0.352,0.105,129.944,113.708,-225.464
0.477,-0.562,-0.105,64.880,116.028,-206.299
0.526,-0.652,-0.169,15.503,117.859,-183.350
0.615,-0.757,-0.204,-15.930,119.080,-157.898
0.687,-0.737,-0.204,-71.289,118.958,-128.357
0.589,-0.917,-0.557,-132.446,117.615,-98.877
0.516,-0.809,-0.684,-130.249,100.159,-80.322
0.503,-0.711,-0.665,-117.615,83.923,-67.688
0.578,-0.671,-0.728,-114.014,73.120,-60.059
0.675,-0.721,-0.683,-102.234,58.044,-57.068
0.700,-0.767,-0.657,-84.290,39.185,-54.260
0.659,-0.750,-0.662,-68.909,21.851,-49.988
0.657,-0.770,-0.710,-55.176,8.301,-47.424
0.634,-0.796,-0.674,-34.546,-4.089,-45.959
0.645,-0.824,-0.615,-18.066,-15.686,-42.908
0.645,-0.826,-0.619,-11.108,-25.757,-39.246
0.640,-0.837,-0.583,-4.761,-34.485,-35.645
0.650,-0.871,-0.494,0.610,-43.213,-31.006
0.650,-0.850,-0.452,-0.671,-50.842,-25.513
0.645,-0.824,-0.428,-5.371,-56.702,-18.494
0.657,-0.798,-0.395,-9.155,-61.890,-10.864
0.675,-0.754,-0.377,-11.292,-66.467,-4.333
0.703,-0.715,-0.358,-8.667,-71.777,0.793
0.736,-0.676,-0.320,-6.897,-77.148,6.042
0.745,-0.635,-0.310,-4.578,-81.970,8.667
0.747,-0.588,-0.276,1.770,-88.074,9.644
0.746,-0.545,-0.247,9.644,-93.384,10.010
0.750,-0.511,-0.212,14.587,-96.924,10.559
0.771,-0.473,-0.162,20.874,-100.281,11.292
0.793,-0.446,-0.089,27.588,-104.370,12.634
0.800,-0.436,-0.026,28.442,-107.361,15.564
0.808,-0.429,0.006,27.039,-108.826,18.738
0.809,-0.418,0.026,25.696,-109.497,20.874
0.797,-0.395,0.036,24.841,-109.009,21.667
0.806,-0.376,0.052,25.269,-108.032,20.996
0.818,-0.375,0.093,28.320,-108.154,19.104
0.818,-0.344,0.127,30.640,-109.253,17.456
0.830,-0.340,0.181,32.715,-110.657,15.259
0.838,-0.313,0.238,35.156,-111.877,13.184
0.821,-0.310,0.258,35.156,-112.671,11.475
0.844,-0.270,0.197,49.194,-113.525,6.531
0.867,-0.161,0.432,61.462,-115.295,0.732
0.866,-0.179,0.431,27.649,-108.398,6.226
0.860,-0.227,0.344,-3.296,-104.492,11.597
0.829,-0.260,0.361,0.488,-101.868,10.254
0.857,-0.271,0.414,17.700,-99.243,5.615
0.849,-0.262,0.458,24.475,-95.703,2.258
0.852,-0.254,0.512,24.597,-93.140,0.916
0.854,-0.250,0.533,16.541,-90.881,1.343
0.849,-0.245,0.547,8.362,-89.233,2.686
0.861,-0.234,0.576,6.653,-88.013,3.052
0.841,-0.220,0.592,5.127,-85.632,2.502
0.838,-0.216,0.613,3.845,-82.703,1.465
0.831,-0.239,0.630,3.174,-79.346,-0.427
0.837,-0.259,0.646,3.235,-75.500,-2.502
0.823,-0.270,0.647,4.700,-70.313,-5.005
0.824,-0.273,0.659,8.667,-64.575,-8.240
0.825,-0.265,0.653,12.207,-58.044,-10.986
0.811,-0.267,0.643,16.235,-52.673,-13.428
0.814,-0.264,0.625,20.569,-48.828,-15.747
0.812,-0.271,0.629,26.123,-46.265,-17.761
0.807,-0.299,0.647,31.616,-45.532,-19.775
0.798,-0.335,0.660,35.645,-45.776,-21.362
0.793,-0.363,0.659,36.987,-44.800,-22.461
0.790,-0.392,0.664,37.537,-43.152,-23.132
0.783,-0.430,0.659,36.438,-40.222,-23.682
0.774,-0.439,0.646,30.945,-36.377,-23.315
0.771,-0.437,0.640,25.513,-32.288,-22.766
0.776,-0.424,0.639,20.264,-28.442,-22.278
0.781,-0.419,0.624,14.954,-24.780,-21.301
0.786,-0.410,0.602,9.644,-22.156,-20.081
0.784,-0.404,0.581,5.554,-20.325,-19.043
0.775,-0.404,0.565,4.822,-19.409,-19.043
0.757,-0.393,0.558,5.249,-19.409,-19.531
0.750,-0.387,0.549,6.531,-19.897,-20.447
0.743,-0.387,0.545,8.728,-20.996,-21.729
0.732,-0.393,0.545,11.475,-22.278,-22.949
0.721,-0.401,0.546,13.184,-23.010,-23.743
0.722,-0.416,0.566,15.259,-22.583,-24.048
0.719,-0.455,0.584,16.724,-21.912,-23.987
0.709,-0.478,0.592,14.832,-21.484,-22.827
0.699,-0.476,0.584,9.766,-20.691,-21.423
0.695,-0.469,0.573,5.737,-20.325,-19.958
0.685,-0.451,0.564,3.296,-20.508,-18.677
0.676,-0.428,0.556,2.319,-20.874,-17.944
0.672,-0.412,0.550,2.319,-21.545,-17.395
0.669,-0.396,0.547,3.052,-22.217,-17.090
0.659,-0.388,0.544,4.517,-22.705,-17.029
0.649,-0.389,0.547,5.310,-23.010,-16.846
0.639,-0.398,0.547,4.761,-23.193,-17.151
0.620,-0.404,0.543,2.808,-23.499,-17.639
0.605,-0.415,0.545,1.343,-24.658,-18.921
0.600,-0.421,0.554,1.221,-26.245,-20.508
0.600,-0.418,0.568,1.953,-28.198,-22.339
0.606,-0.416,0.567,1.526,-30.151,-23.254
0.610,-0.419,0.561,1.831,-32.104,-24.170
0.603,-0.419,0.564,3.845,-33.813,-25.269
0.592,-0.424,0.573,7.629,-35.095,-26.733
0.583,-0.432,0.585,11.169,-35.950,-27.588
0.574,-0.441,0.589,12.634,-35.767,-28.015
0.564,-0.447,0.585,13.672,-35.461,-28.564
,,,,,
-0.296,-1.431,-1.361,4.822,191.711,74.829
-0.296,-1.500,-1.536,-11.414,144.592,98.816
-0.342,-1.297,-1.519,-24.536,90.088,122.925
-0.371,-1.213,-1.380,-17.456,43.701,136.719
-0.346,-1.271,-1.171,-25.757,0.061,153.748
-0.328,-1.157,-1.124,-44.983,-29.602,178.406
-0.361,-1.019,-1.121,-52.979,-50.537,200.684
-0.405,-0.833,-1.108,-37.720,-72.327,218.445
-0.412,-0.663,-0.987,-19.836,-96.924,235.779
-0.421,-0.506,-0.750,-6.287,-120.239,249.084
-0.411,-0.321,-0.517,13.000,-138.000,254.578
-0.389,0.011,-0.338,31.921,-153.748,257.507
-0.322,0.196,-0.113,40.710,-175.232,260.010
-0.119,0.625,0.383,46.753,-194.885,261.475
0.189,1.011,1.099,65.674,-193.909,255.676
0.486,1.244,1.316,50.293,-179.077,245.422
0.795,1.525,1.271,-25.818,-169.922,246.765
0.729,2.162,1.463,-85.327,-146.423,245.117
0.714,2.396,1.650,-137.268,-93.384,231.873
0.711,2.783,1.499,-194.092,-33.752,204.407
0.960,3.210,1.351,-177.979,19.104,154.724
1.072,3.401,1.505,-105.835,51.941,90.576
1.172,3.396,1.415,-109.680,80.200,33.447
1.068,3.366,1.111,-96.497,96.191,-25.818
0.987,3.026,1.100,-35.583,102.844,-86.670
0.912,2.563,1.018,-8.728,110.840,-142.090
0.729,2.177,0.796,6.409,113.403,-190.735
0.557,1.755,0.621,33.142,115.417,-234.802
0.373,1.339,0.525,68.054,120.667,-271.912
0.220,0.803,0.456,95.886,130.432,-298.889
0.139,0.285,0.327,100.647,146.423,-311.951
-0.029,-0.153,-0.039,87.891,164.551,-312.622
-0.098,-0.719,-0.402,60.852,180.908,-303.772
0.019,-1.090,-0.537,15.198,193.726,-277.893
0.142,-1.778,-0.282,-65.918,205.017,-233.643
-0.108,-2.349,-0.938,-100.891,212.158,-185.486
-0.149,-2.563,-1.373,-84.900,221.375,-133.667
-0.229,-2.517,-1.732,-112.305,201.721,-80.872
-0.042,-2.376,-1.886,-99.854,164.124,-41.382
-0.113,-2.622,-2.203,-131.958,107.849,-0.916
-0.049,-2.400,-2.455,-121.948,37.415,37.537
0.137,-2.487,-2.108,-68.115,-28.381,62.622
0.106,-2.578,-1.680,-44.434,-91.125,92.773
0.092,-2.384,-1.352,-14.954,-127.747,125.793
-0.045,-2.253,-1.303,-16.968,-148.499,161.743
-0.131,-1.906,-1.356,-8.057,-167.542,194.153
-0.158,-1.359,-1.159,13.367,-194.092,222.839
-0.205,-1.063,-0.804,53.528,-222.473,234.558
-0.239,-0.722,-0.355,75.928,-241.089,244.141
-0.206,-0.232,0.038,87.524,-252.991,255.371
-0.043,0.169,0.585,89.905,-262.756,263.977
0.128,0.597,1.327,70.923,-262.024,273.010
0.250,1.000,1.473,57.007,-242.920,277.771
0.324,1.552,1.906,2.930,-224.670,288.147
0.489,2.342,2.065,-49.377,-192.810,291.321
0.549,2.456,2.181,-96.375,-148.315,275.757
0.660,3.780,2.359,-99.792,-91.858,251.221
0.729,4.000,2.377,-84.839,-30.396,197.021
1.144,4.000,1.997,-88.318,28.870,130.981
0.994,4.000,2.092,-51.636,68.848,75.012
1.083,4.000,1.559,-122.192,105.042,18.616
1.029,3.871,1.276,-89.111,112.915,-60.669
0.923,3.449,1.020,-23.743,114.807,-139.893
0.754,2.856,0.891,16.479,112.549,-203.247
0.621,2.227,0.748,38.391,108.276,-255.981
0.390,1.660,0.718,69.702,105.469,-297.791
0.157,1.067,0.569,79.712,112.305,-323.914
-0.056,0.455,0.263,67.749,129.150,-338.257
-0.195,-0.170,0.051,50.171,148.987,-340.515
-0.160,-0.802,-0.020,15.564,168.579,-328.735
-0.096,-1.313,-0.025,-11.414,185.608,-305.115
-0.053,-1.651,-0.381,-44.861,206.726,-266.174
-0.202,-2.253,-1.018,-86.731,217.407,-217.834
-0.333,-2.448,-1.347,-114.746,210.388,-164.429
-0.302,-2.530,-1.639,-152.954,198.425,-114.807
-0.237,-2.405,-1.851,-154.907,171.448,-79.285
0.039,-2.384,-2.046,-136.719,128.845,-57.312
0.323,-2.677,-2.011,-94.849,74.829,-39.307
0.316,-2.738,-1.685,-60.608,8.118,-7.751
0.219,-2.492,-1.541,-19.836,-36.133,34.302
0.190,-2.413,-1.578,0.488,-63.904,71.838
0.110,-2.224,-1.588,23.560,-90.576,103.882
0.077,-1.918,-1.397,39.490,-123.657,136.536
0.080,-1.667,-1.021,49.744,-156.006,162.903
0.048,-1.341,-0.690,62.988,-178.528,185.608
-0.031,-1.003,-0.499,70.618,-194.031,205.322
-0.055,-0.592,-0.323,74.036,-205.872,220.825
-0.025,-0.103,0.004,72.449,-220.642,234.619
0.127,0.342,0.468,62.988,-235.779,243.958
0.278,0.774,0.823,46.326,-239.807,250.488
0.450,1.191,1.189,24.902,-233.215,254.395
0.742,1.744,1.929,8.423,-202.332,257.324
0.688,2.219,1.667,-28.320,-148.987,252.563
0.702,2.761,1.357,-26.733,-112.732,229.797
0.973,3.489,2.177,-29.602,-62.317,194.214
0.953,3.679,1.743,-124.207,-8.240,166.504
1.156,3.768,1.554,-127.502,22.644,116.089
1.304,3.839,1.371,-103.271,47.302,56.030
1.283,3.682,1.120,-91.125,59.082,-5.371
1.169,3.343,0.895,-55.176,59.021,-70.923
0.994,2.883,0.745,-15.808,55.176,-135.742
0.857,2.438,0.669,23.865,51.331,-195.068
0.730,1.954,0.587,64.331,50.781,-244.934
0.549,1.382,0.494,91.125,56.396,-280.457
0.370,0.817,0.391,107.056,69.702,-300.659
0.240,0.224,0.305,110.413,87.463,-307.678
0.171,-0.356,0.159,102.966,109.741,-301.392
0.182,-0.843,-0.063,75.867,133.484,-281.921
0.168,-1.273,-0.286,37.659,151.245,-252.441
0.295,-1.451,-0.638,-4.456,161.499,-216.309
0.151,-1.978,-0.730,-70.740,161.438,-176.575
0.161,-2.262,-1.233,-54.504,153.931,-150.696
0.315,-2.420,-1.484,-90.271,135.437,-113.831
0.397,-2.383,-1.582,-110.046,101.074,-70.862
0.409,-2.327,-1.529,-87.402,53.589,-35.461
0.469,-2.237,-1.383,-48.401,12.695,-6.348
0.499,-2.310,-1.251,-10.864,-16.968,22.766
0.431,-2.299,-1.209,12.695,-40.283,58.655
0.360,-2.051,-1.197,25.085,-60.120,95.947
,,,,,
0.268,-1.523,-0.856,48.706,-106.201,147.644
0.202,-1.222,-0.548,54.504,-127.869,170.715
0.178,-0.886,-0.271,60.364,-140.625,191.833
0.190,-0.510,0.016,59.509,-149.719,209.839
0.228,-0.053,0.286,53.040,-159.180,224.121
0.346,0.325,0.632,36.072,-165.405,233.398
0.469,0.817,0.956,7.935,-162.720,243.103
0.592,1.470,1.552,-27.161,-149.353,250.488
0.717,1.933,1.569,-46.021,-110.413,243.774
0.596,2.224,1.073,-50.659,-76.477,224.182
0.776,3.002,1.792,-37.598,-44.250,194.702
0.809,3.261,1.507,-131.104,5.859,171.021
0.844,3.513,1.193,-139.221,40.771,125.488
1.066,3.615,1.115,-114.746,69.641,68.481
1.118,3.541,0.953,-90.332,87.219,5.920
1.094,3.315,0.764,-49.133,88.379,-58.228
0.967,2.978,0.520,-10.864,82.214,-120.483
0.849,2.560,0.445,22.400,74.524,-176.392
0.739,2.126,0.396,53.650,67.322,-223.999
0.581,1.632,0.288,82.275,63.965,-263.428
0.409,1.132,0.200,107.605,68.237,-292.786
0.299,0.643,0.153,118.042,79.285,-308.228
0.228,0.144,0.144,121.765,93.140,-311.890
0.190,-0.275,0.048,112.488,111.328,-302.917
0.202,-0.622,-0.150,80.261,129.028,-280.884
0.211,-0.897,-0.336,37.415,138.367,-250.305
0.193,-1.015,-0.471,-17.029,138.000,-213.928
0.200,-1.064,-0.597,-65.491,133.728,-180.542
0.267,-1.183,-0.644,-126.404,127.380,-148.926
0.276,-1.268,-0.964,-134.583,115.967,-127.747
0.316,-1.229,-1.135,-118.042,97.046,-115.417
0.336,-1.147,-1.171,-113.770,73.303,-99.487
0.360,-1.151,-1.145,-88.806,43.884,-90.454
0.385,-1.241,-1.082,-47.363,17.273,-84.778
0.360,-1.318,-1.028,-16.968,-5.615,-73.059
0.391,-1.361,-0.992,3.235,-24.414,-58.411
0.400,-1.385,-0.980,17.883,-40.344,-42.664
0.394,-1.359,-0.940,24.414,-56.519,-25.330
0.379,-1.321,-0.837,26.367,-74.707,-7.019
0.370,-1.264,-0.735,25.085,-90.271,10.620
0.389,-1.188,-0.646,21.545,-101.807,28.137
0.385,-1.086,-0.562,18.555,-112.976,44.006
0.405,-0.996,-0.492,14.465,-123.352,58.289
0.432,-0.873,-0.404,11.047,-133.240,71.167
0.462,-0.708,-0.296,11.536,-142.944,82.581
0.498,-0.516,-0.166,13.184,-152.283,92.346
0.554,-0.373,0.003,11.475,-160.339,100.464
0.608,-0.252,0.185,7.080,-166.260,106.995
0.635,-0.161,0.317,5.005,-167.114,110.718
0.648,-0.074,0.363,4.639,-162.292,112.000
0.641,-0.010,0.350,10.132,-155.090,109.802
0.614,0.059,0.330,21.667,-148.132,103.943
0.598,0.139,0.364,35.706,-144.104,96.375
0.620,0.240,0.467,50.110,-142.029,88.684
0.666,0.300,0.570,62.134,-138.855,81.238
0.715,0.327,0.591,66.528,-134.277,75.012
0.747,0.334,0.650,68.909,-130.920,70.129
0.774,0.324,0.702,68.970,-126.343,65.369
0.766,0.321,0.707,63.354,-119.934,59.753
0.774,0.286,0.694,59.204,-113.098,52.917
0.787,0.270,0.666,53.345,-106.201,46.326
0.783,0.304,0.628,49.805,-100.952,40.344
0.795,0.320,0.649,51.880,-97.046,33.936
0.793,0.290,0.655,54.688,-93.689,28.320
0.793,0.255,0.660,57.129,-92.102,23.315
0.801,0.230,0.678,57.983,-91.431,19.165
0.801,0.219,0.690,56.274,-90.759,16.113
0.796,0.223,0.715,54.688,-90.332,14.404
0.790,0.212,0.728,50.964,-87.952,12.878
0.759,0.165,0.711,47.607,-83.862,10.559
0.760,0.169,0.720,54.749,-79.102,5.432
0.770,0.145,0.762,53.223,-73.853,1.648
0.764,0.146,0.673,40.833,-68.054,0.610
0.775,0.159,0.690,41.809,-64.941,-2.075
0.805,0.155,0.682,42.908,-61.707,-4.456
0.809,0.141,0.655,43.518,-60.791,-6.836
0.818,0.136,0.659,47.363,-61.523,-9.583
0.816,0.126,0.675,48.401,-62.500,-12.329
0.813,0.114,0.692,46.143,-64.270,-15.015
0.802,0.104,0.711,43.823,-65.247,-17.395
0.796,0.073,0.738,41.321,-65.125,-19.287
0.786,0.035,0.743,35.034,-62.073,-20.630
0.776,0.016,0.762,31.738,-58.411,-22.644
0.775,0.015,0.770,29.541,-54.993,-25.085
0.764,0.021,0.754,26.428,-51.758,-27.222
0.760,0.022,0.750,26.184,-49.500,-29.053
0.755,0.013,0.741,28.137,-48.523,-30.579
0.749,-0.001,0.733,31.128,-48.706,-31.616
0.739,-0.010,0.735,33.691,-49.561,-32.532
0.731,-0.032,0.742,35.645,-49.988,-33.569
0.734,-0.062,0.737,37.048,-50.110,-33.997
0.722,-0.083,0.738,36.865,-49.622,-34.058
0.711,-0.099,0.768,34.912,-49.133,-33.630
0.706,-0.118,0.795,30.334,-47.729,-32.043
0.699,-0.120,0.807,25.391,-46.387,-29.419
0.686,-0.092,0.804,21.729,-44.983,-27.405
0.690,0.072,0.798,21.667,-43.945,-27.588
0.664,0.019,0.780,28.748,-44.983,-35.278
0.649,0.011,0.753,36.926,-46.082,-44.373
0.628,-0.289,0.805,43.823,-45.593,-51.758
0.672,-0.353,0.790,41.443,-42.480,-51.025
0.684,-0.357,0.816,36.011,-41.565,-46.387
0.664,-0.157,0.747,33.081,-40.710,-42.847
0.621,-0.170,0.747,44.556,-44.067,-50.415
0.625,-0.387,0.824,58.350,-43.640,-58.472
0.633,-0.392,0.771,49.255,-39.307,-56.213
0.619,-0.358,0.795,48.767,-41.016,-54.810
0.599,-0.479,0.832,51.086,-41.626,-54.932
0.605,-0.499,0.853,42.908,-38.330,-49.927
0.621,-0.582,0.892,30.457,-34.241,-42.603
0.617,-0.541,0.882,18.494,-30.579,-33.997
0.615,-0.477,0.848,6.836,-27.161,-26.611
0.616,-0.452,0.854,-0.610,-24.292,-21.301
0.620,-0.411,0.856,-6.287,-21.545,-16.663
0.614,-0.369,0.831,-9.033,-20.264,-13.489
0.616,-0.322,0.815,-8.118,-20.020,-12.146
0.596,-0.326,0.809,-4.639,-20.386,-12.695
0.579,-0.314,0.802,-0.793,-20.447,-14.099
0.570,-0.301,0.792,2.563,-20.386,-15.991
,,,,,
-0.343,-0.801,1.435,20.325,106.934,82.458
-0.354,-0.818,1.463,17.456,114.746,88.379
-0.359,-0.834,1.499,14.709,122.986,94.604
-0.347,-0.833,1.514,12.329,130.981,100.037
-0.300,-0.783,1.527,12.268,138.489,104.492
-0.252,-0.726,1.488,12.939,144.714,108.337
-0.196,-0.716,1.492,14.587,149.231,112.305
-0.155,-0.718,1.502,17.029,152.344,115.967
-0.138,-0.772,1.574,19.775,153.381,119.019
-0.140,-0.789,1.604,15.930,152.100,123.291
-0.174,-0.800,1.670,7.141,153.687,127.686
-0.177,-0.742,1.667,1.953,155.701,132.324
-0.211,-0.687,1.653,-11.230,161.621,138.428
-0.197,-0.589,1.595,-23.193,172.424,142.700
-0.177,-0.525,1.566,-32.471,183.289,143.799
-0.135,-0.430,1.563,-39.673,193.298,142.456
-0.149,-0.359,1.527,-45.959,201.965,138.794
-0.130,-0.311,1.564,-45.715,208.313,132.385
-0.186,-0.295,1.595,-46.631,213.257,125.000
-0.206,-0.231,1.508,-50.842,224.121,117.004
-0.204,-0.132,1.466,-50.964,235.596,108.459
-0.185,-0.061,1.419,-48.279,247.070,99.731
-0.170,0.001,1.356,-48.340,259.888,90.881
-0.151,0.069,1.294,-46.265,270.996,81.543
-0.152,0.098,1.222,-39.795,280.701,71.228
-0.160,0.134,1.168,-34.241,289.062,60.242
-0.180,0.190,1.121,-32.715,296.509,49.194
-0.201,0.222,1.055,-32.593,303.284,37.537
-0.212,0.237,0.973,-38.574,312.195,22.888
-0.194,0.245,0.866,-35.095,320.251,6.348
-0.230,0.232,0.765,-23.682,327.393,-9.766
-0.258,0.184,0.651,-14.954,335.449,-26.917
-0.327,0.091,0.486,-5.432,344.299,-43.884
-0.423,-0.046,0.303,1.160,351.868,-59.448
-0.431,-0.209,0.117,5.615,357.849,-74.585
-0.424,-0.344,-0.113,13.306,362.671,-85.144
-0.401,-0.470,-0.253,14.771,361.816,-88.013
-0.337,-0.515,-0.310,4.028,360.474,-86.792
-0.106,-0.799,-0.428,-15.320,355.225,-85.754
-0.338,-1.069,-0.717,-73.364,348.816,-77.820
-0.501,-1.279,-1.086,-106.873,338.318,-75.562
-0.541,-1.928,-1.458,-51.514,323.608,-83.008
-0.488,-1.843,-1.840,108.215,276.123,-93.811
-0.267,-2.018,-1.682,162.598,204.041,-72.998
-0.147,-2.338,-1.328,120.178,136.169,-24.658
-0.343,-2.298,-1.138,75.806,89.905,29.114
-0.254,-2.391,-1.417,68.481,65.491,73.303
-0.234,-2.330,-1.429,58.411,33.813,114.136
-0.235,-2.039,-1.264,44.250,-5.127,153.198
-0.425,-2.051,-1.435,38.574,-35.828,183.411
-0.481,-1.688,-1.437,20.630,-73.730,220.093
-0.513,-1.292,-1.149,30.334,-117.493,254.333
-0.498,-0.912,-0.871,43.945,-151.184,275.635
-0.513,-0.766,-0.694,54.382,-172.913,286.011
-0.505,-0.474,-0.588,76.355,-190.979,291.443
-0.582,-0.136,-0.200,92.041,-219.482,297.485
-0.613,0.321,0.359,113.342,-252.747,301.575
0.044,0.943,1.333,170.959,-255.981,303.345
0.531,1.456,2.058,203.430,-233.887,287.842
0.757,1.468,2.692,97.656,-226.013,290.344
0.475,2.505,2.041,-199.219,-154.358,326.721
0.457,3.168,1.824,-306.885,-51.025,308.777
0.453,3.474,2.207,-195.007,27.100,234.497
0.949,4.000,1.967,-189.087,103.882,171.387
0.923,4.000,1.631,-211.731,145.752,114.075
0.983,4.000,1.363,-181.702,155.273,33.447
0.887,4.000,0.922,-93.567,148.499,-80.078
0.741,3.815,0.833,-4.211,140.869,-174.805
0.559,2.785,0.722,69.153,142.700,-244.019
0.199,1.954,0.632,121.155,141.785,-295.044
-0.113,1.190,0.426,141.357,148.804,-332.275
-0.297,0.604,0.160,146.240,164.551,-352.661
-0.407,-0.084,-0.172,129.578,190.552,-359.070
-0.627,-0.764,-0.566,78.125,217.285,-347.595
-0.490,-1.292,-0.760,25.085,237.183,-325.378
-0.558,-1.844,-0.957,-49.561,263.428,-279.785
-0.762,-2.488,-0.882,-132.019,301.331,-230.652
-0.505,-3.308,-2.289,-54.260,304.504,-197.876
-0.616,-3.341,-2.883,13.794,229.309,-148.743
-0.638,-3.359,-3.033,-137.390,130.432,-49.744
-0.297,-3.346,-2.716,-112.000,49.683,6.042
-0.029,-3.248,-2.342,-100.891,-25.085,50.842
-0.106,-3.155,-2.363,-87.708,-72.021,92.590
-0.283,-3.029,-2.340,-82.275,-114.075,137.451
-0.274,-1.986,-2.136,-69.519,-158.325,191.406
-0.340,-1.628,-1.875,-8.240,-204.651,218.994
-0.420,-1.644,-1.498,56.152,-245.911,225.159
-0.498,-1.451,-1.070,107.910,-272.034,231.506
-0.549,-1.150,-0.550,125.854,-292.175,246.582
-0.500,-0.719,-0.094,131.409,-312.256,259.033
-0.420,-0.338,0.493,129.883,-334.412,269.653
-0.164,0.268,1.661,142.395,-339.783,278.320
0.035,0.788,1.871,131.042,-307.800,281.311
0.186,1.457,2.024,12.024,-287.659,299.805
0.732,2.099,2.807,-16.113,-250.977,299.683
0.704,2.903,2.984,-50.110,-190.857,289.246
0.697,4.000,2.830,-185.608,-79.529,279.114
0.969,4.000,2.434,-259.888,18.250,231.995
1.111,4.000,2.109,-206.604,71.838,151.978
1.113,4.000,1.935,-137.634,99.915,65.002
0.996,4.000,1.618,-98.816,123.047,-32.654
0.939,4.000,1.319,-24.780,131.104,-135.803
0.893,3.438,1.257,58.105,130.249,-218.994
0.587,2.585,0.996,90.637,128.418,-281.860
0.265,1.903,0.779,113.098,131.592,-329.712
-0.057,1.302,0.667,126.709,144.653,-361.389
-0.300,0.560,0.370,122.986,168.152,-380.859
-0.385,-0.201,0.069,88.684,199.341,-379.944
-0.539,-0.815,-0.191,36.438,226.318,-361.816
-0.388,-1.451,-0.454,-4.272,243.713,-341.492
-0.487,-2.103,-0.516,-69.885,262.512,-300.354
-0.591,-2.399,-0.820,-37.476,291.077,-259.094
-0.375,-2.960,-1.860,-53.894,310.181,-204.285
-0.516,-3.325,-2.776,-140.869,266.724,-124.268
-0.532,-3.181,-3.074,-188.538,185.547,-49.377
-0.258,-2.711,-2.580,-172.668,101.746,-6.531
0.002,-2.911,-2.252,-135.193,34.180,7.019
0.062,-3.260,-2.279,-94.788,-10.620,24.597
-0.036,-3.192,-2.332,-74.097,-58.350,74.585
,,,,,
-0.106,-1.671,-1.758,1.526,-141.602,171.387
-0.189,-1.808,-1.496,72.388,-170.044,173.889
-0.236,-1.800,-1.272,113.647,-194.153,182.312
-0.316,-1.588,-0.949,129.761,-218.750,203.125
-0.351,-1.161,-0.608,137.878,-242.920,221.741
-0.330,-0.794,-0.227,143.799,-261.902,233.215
-0.228,-0.406,0.204,140.198,-281.616,243.225
-0.105,0.127,0.669,120.544,-302.246,255.493
0.140,0.969,2.484,58.899,-307.251,276.367
0.510,1.697,1.869,39.368,-255.005,287.781
0.619,2.637,2.074,-64.087,-229.126,288.696
0.821,2.705,2.598,-119.019,-178.467,272.522
0.889,3.330,2.519,-172.607,-95.337,253.723
0.823,3.998,1.907,-235.779,-10.986,220.520
0.995,4.000,1.679,-151.123,40.588,137.390
1.122,4.000,1.669,-96.863,78.796,53.894
1.125,4.000,1.288,-92.896,103.821,-25.452
0.991,3.974,1.114,-27.100,106.934,-112.183
0.904,3.211,0.808,42.236,104.431,-188.171
0.745,2.560,0.781,88.562,101.196,-247.131
0.499,1.922,0.613,111.511,98.206,-294.922
0.182,1.395,0.428,135.132,100.647,-333.374
0.058,0.661,0.310,134.705,117.371,-355.164
0.089,-0.095,0.181,113.159,141.541,-359.924
-0.066,-0.459,0.022,83.008,157.898,-348.633
-0.155,-0.795,-0.246,51.880,165.527,-335.449
-0.121,-1.170,-0.167,-8.911,174.133,-310.913
-0.033,-1.527,-0.220,-37.964,190.063,-274.780
0.023,-1.693,-0.409,-34.973,210.449,-233.521
-0.105,-1.907,-1.020,-88.257,222.290,-179.871
-0.238,-2.294,-1.710,-155.640,208.618,-119.446
-0.435,-2.041,-2.024,-200.989,165.894,-58.716
-0.280,-1.688,-2.024,-166.504,111.816,-37.659
0.040,-2.134,-1.548,-104.797,54.504,-45.227
0.242,-2.338,-1.214,-74.402,19.653,-36.011
0.229,-2.247,-1.425,-60.364,-3.723,-8.301
0.136,-2.073,-1.661,-33.020,-30.701,17.151
0.042,-1.875,-1.555,-7.446,-69.275,46.082
0.058,-1.616,-1.286,20.752,-103.577,70.557
0.115,-1.429,-1.081,38.818,-128.418,88.135
0.148,-1.271,-1.022,52.429,-144.165,99.792
0.168,-1.064,-0.927,59.875,-158.630,112.305
0.131,-0.902,-0.758,70.068,-174.561,122.009
0.130,-0.672,-0.557,71.594,-186.157,130.005
0.173,-0.366,-0.389,68.909,-194.641,136.475
0.322,-0.186,-0.220,66.650,-203.003,137.817
0.412,0.143,0.243,55.237,-214.905,141.785
0.568,0.313,0.550,58.289,-211.365,140.137
0.586,0.375,0.219,54.932,-200.500,130.432
0.634,0.485,0.575,42.725,-210.510,122.986
0.757,0.530,0.619,6.836,-196.289,126.770
0.715,0.720,0.748,-23.682,-177.673,129.883
0.775,1.070,0.878,-9.766,-163.635,123.230
0.798,1.325,1.034,5.310,-145.020,107.544
0.858,1.371,1.100,-1.221,-122.864,88.013
0.909,1.407,1.101,-10.742,-102.173,66.467
0.945,1.583,1.036,-6.409,-80.811,40.405
0.946,1.119,1.081,11.108,-61.584,8.850
1.006,1.337,1.007,3.052,-40.894,-10.010
0.973,1.245,0.804,3.296,-26.428,-35.095
0.950,1.179,0.634,28.992,-17.822,-66.528
0.935,1.024,0.533,62.317,-12.329,-98.572
0.944,0.877,0.469,96.863,-10.681,-128.723
0.914,0.688,0.419,130.005,-13.367,-154.419
0.899,0.413,0.354,153.137,-13.245,-173.767
0.905,0.123,0.340,169.373,-11.475,-184.753
0.895,-0.123,0.334,175.842,-9.521,-187.988
0.886,-0.347,0.339,155.151,-8.301,-181.396
0.906,-0.526,0.301,117.188,-7.385,-167.480
0.899,-0.626,0.274,76.965,-6.836,-149.597
0.882,-0.685,0.232,34.180,-7.812,-129.089
0.879,-0.710,0.177,-7.568,-8.789,-107.971
0.858,-0.684,0.136,-34.546,-9.521,-90.515
0.864,-0.618,0.129,-43.518,-13.062,-77.881
0.914,-0.557,0.141,-46.326,-18.860,-68.359
0.916,-0.526,0.116,-44.189,-26.489,-61.829
0.888,-0.515,0.105,-31.799,-35.461,-58.228
0.871,-0.540,0.111,-18.677,-42.847,-54.810
0.845,-0.542,0.117,-7.629,-48.584,-51.575
0.832,-0.545,0.163,1.465,-53.223,-47.974
0.842,-0.578,0.187,2.563,-54.504,-42.847
0.857,-0.582,0.219,-0.366,-54.504,-37.231
0.889,-0.570,0.255,-1.404,-55.481,-32.837
0.885,-0.567,0.292,-3.052,-57.800,-29.114
0.880,-0.557,0.337,-6.470,-60.608,-25.146
0.864,-0.553,0.363,-12.878,-63.354,-21.484
0.842,-0.525,0.385,-18.188,-64.270,-19.226
0.831,-0.478,0.427,-17.578,-64.819,-18.188
0.831,-0.455,0.451,-17.639,-62.988,-17.761
0.833,-0.411,0.452,-15.076,-59.814,-17.944
0.806,-0.374,0.478,-5.005,-57.678,-18.555
0.807,-0.369,0.481,2.991,-55.176,-19.348
0.808,-0.381,0.485,6.775,-51.941,-20.020
0.798,-0.390,0.484,8.240,-48.401,-20.752
0.800,-0.395,0.472,10.681,-45.166,-22.522
0.818,-0.422,0.490,16.724,-43.396,-24.414
0.818,-0.449,0.510,18.738,-42.847,-24.963
0.800,-0.448,0.497,15.564,-42.908,-24.841
0.776,-0.441,0.479,12.756,-43.030,-24.597
0.768,-0.434,0.471,11.780,-42.419,-24.536
0.747,-0.417,0.457,11.780,-41.809,-24.963
0.735,-0.394,0.458,12.939,-42.542,-25.574
0.752,-0.394,0.464,13.733,-42.786,-25.574
0.750,-0.421,0.483,12.756,-42.297,-24.292
0.752,-0.420,0.487,8.179,-40.710,-22.522
0.751,-0.422,0.483,2.563,-39.429,-21.851
0.740,-0.432,0.489,0.061,-38.879,-21.790
0.725,-0.434,0.501,-2.075,-38.696,-21.362
0.705,-0.431,0.500,-4.089,-39.124,-21.545
0.690,-0.414,0.488,-3.723,-39.917,-22.827
0.661,-0.396,0.482,-0.732,-41.748,-24.597
0.638,-0.403,0.482,2.686,-44.373,-26.550
0.582,-0.416,0.477,5.554,-46.814,-28.809
0.588,-0.427,0.485,10.193,-49.316,-31.250
0.584,-0.473,0.484,12.085,-51.025,-32.532
0.584,-0.498,0.499,10.559,-51.697,-32.227
0.573,-0.497,0.489,6.958,-52.368,-30.518
0.571,-0.524,0.475,3.540,-52.551,-29.053
0.570,-0.536,0.483,1.221,-53.345,-27.344
,,,,,
-0.533,-0.755,1.188,12.207,37.537,47.241
-0.540,-0.765,1.207,12.756,42.969,51.270
-0.554,-0.779,1.253,17.700,49.194,54.199
-0.556,-0.782,1.264,23.132,57.678,56.580
-0.543,-0.768,1.247,28.137,67.139,60.303
-0.537,-0.747,1.226,33.020,76.477,63.904
-0.525,-0.745,1.219,39.551,83.740,66.223
-0.500,-0.761,1.227,46.143,89.478,68.359
-0.483,-0.769,1.246,50.903,94.299,70.618
-0.482,-0.781,1.291,54.932,98.145,73.608
-0.493,-0.809,1.331,55.176,102.356,77.637
-0.512,-0.854,1.369,53.894,107.239,81.726
-0.530,-0.905,1.437,55.786,111.938,85.999
-0.551,-0.954,1.477,59.998,117.065,90.210
-0.559,-0.977,1.458,61.035,124.023,95.276
-0.540,-0.968,1.441,59.875,132.629,101.257
-0.492,-0.913,1.428,59.753,142.029,107.056
-0.459,-0.884,1.397,55.237,150.879,112.915
-0.401,-0.875,1.361,50.720,158.203,119.202
-0.365,-0.838,1.306,44.250,164.490,124.451
-0.318,-0.798,1.256,37.781,168.762,128.601
-0.269,-0.759,1.220,30.579,171.631,131.470
-0.223,-0.735,1.215,24.597,172.241,132.080
-0.207,-0.697,1.194,22.034,171.143,130.920
-0.202,-0.670,1.160,19.592,169.739,128.967
-0.157,-0.666,1.145,17.517,170.288,126.526
-0.111,-0.648,1.154,14.771,171.753,124.634
-0.084,-0.620,1.150,11.108,174.072,123.352
-0.091,-0.672,1.175,7.080,175.476,122.131
-0.116,-0.730,1.207,6.409,176.697,120.300
-0.135,-0.689,1.233,8.606,179.565,118.469
-0.118,-0.657,1.232,4.822,184.753,118.286
-0.106,-0.632,1.225,-1.892,191.162,117.737
-0.079,-0.579,1.227,-3.235,197.571,114.685
-0.054,-0.528,1.176,-2.563,205.200,110.107
-0.054,-0.494,1.105,-0.671,214.111,104.187
-0.049,-0.478,1.027,5.920,223.145,95.947
-0.060,-0.446,0.945,15.869,231.262,86.853
-0.085,-0.405,0.860,25.940,238.220,78.247
-0.028,-0.420,0.799,39.246,241.211,70.129
-0.019,-0.484,0.777,54.810,242.371,61.768
-0.068,-0.518,0.700,62.988,244.995,53.162
-0.101,-0.537,0.595,62.866,247.925,48.706
-0.123,-0.598,0.470,59.692,252.563,44.800
-0.108,-0.665,0.368,62.073,255.737,40.955
-0.155,-0.700,0.250,63.904,259.583,38.513
-0.163,-0.837,0.046,57.312,264.954,36.926
-0.154,-0.993,-0.155,46.692,271.118,35.156
-0.132,-1.195,-0.316,30.945,276.123,35.645
-0.136,-1.357,-0.458,8.240,277.588,40.466
-0.069,-1.176,-0.610,-24.902,276.062,51.819
0.064,-2.284,-0.724,-49.744,273.254,63.843
-0.265,-1.681,-1.691,18.066,240.417,73.059
-0.251,-1.704,-1.074,84.290,185.242,89.355
-0.253,-1.840,-0.928,164.001,138.367,87.463
-0.181,-2.036,-0.722,138.672,83.191,115.540
-0.189,-1.978,-0.757,96.802,33.447,154.785
-0.258,-1.852,-0.799,66.345,-4.944,188.049
-0.367,-1.712,-0.840,42.297,-30.518,218.079
-0.429,-1.416,-0.816,30.823,-52.002,247.742
-0.449,-1.140,-0.715,25.330,-76.233,276.123
-0.461,-0.884,-0.509,26.062,-100.098,300.476
-0.461,-0.615,-0.217,26.917,-122.681,315.979
-0.417,-0.231,0.110,27.588,-143.982,327.393
-0.354,0.167,0.793,29.846,-165.833,336.243
-0.242,0.544,1.080,52.063,-171.143,334.106
0.073,1.003,1.420,39.978,-171.814,328.918
0.504,1.279,2.835,13.672,-175.476,333.740
0.661,1.690,2.724,-114.990,-127.869,347.351
0.201,2.673,1.998,-320.618,-35.706,350.098
0.135,3.281,2.038,-294.067,66.895,295.532
0.458,3.908,1.809,-328.430,143.860,231.506
0.595,4.000,1.304,-292.236,188.782,154.297
0.633,4.000,1.138,-227.173,212.769,65.247
0.686,4.000,0.708,-134.399,215.637,-37.781
0.338,3.691,0.631,-30.457,200.439,-132.874
0.256,2.838,0.494,51.086,190.369,-199.341
0.209,2.129,0.478,110.046,187.866,-244.446
-0.215,1.593,0.405,166.382,189.819,-282.959
-0.530,0.966,0.025,193.970,209.290,-308.777
-0.660,0.222,-0.426,200.928,229.614,-320.557
-0.877,-0.443,-0.550,182.739,247.253,-320.618
-1.074,-1.026,-0.676,114.929,281.433,-305.725
-1.051,-1.730,-0.922,23.682,334.717,-271.118
-0.922,-2.235,-1.523,-32.837,369.690,-229.797
-0.585,-2.407,-2.226,-144.897,361.145,-168.091
-0.629,-2.351,-2.582,-291.138,290.222,-111.450
-0.673,-3.709,-3.854,-267.212,248.596,-71.289
-0.481,-3.487,-3.247,-110.229,134.521,-40.527
-0.339,-2.639,-2.361,-107.300,9.399,21.790
-0.012,-3.025,-2.320,-106.018,-35.828,53.589
-0.154,-3.023,-2.633,-90.393,-81.909,83.679
-0.302,-2.836,-2.711,-72.388,-136.597,127.380
-0.228,-2.010,-2.286,-44.556,-195.129,174.866
-0.279,-1.694,-1.728,9.399,-247.681,195.740
-0.448,-1.712,-1.310,55.603,-280.212,199.707
-0.514,-1.505,-1.075,89.478,-295.776,209.290
-0.610,-1.164,-0.765,114.685,-317.200,221.436
-0.568,-0.753,-0.361,135.254,-343.079,232.910
-0.427,-0.422,0.368,156.494,-376.709,241.089
-0.255,-0.182,2.105,187.317,-411.987,245.300
0.200,0.208,2.855,236.084,-395.691,242.859
0.539,0.906,3.177,44.556,-367.310,267.700
0.593,1.842,2.751,-201.904,-285.950,306.702
0.352,2.572,2.758,-335.449,-170.837,327.026
0.572,3.509,2.868,-324.646,-53.772,291.687
0.853,4.000,2.259,-228.210,25.879,218.933
1.011,4.000,2.325,-164.429,72.876,145.569
1.080,4.000,1.792,-172.241,117.188,67.810
0.883,4.000,1.489,-80.261,137.817,-37.781
0.753,4.000,1.452,36.865,139.099,-141.418
0.607,3.318,1.216,106.140,147.095,-219.849
0.357,2.754,0.903,142.212,156.067,-275.391
-0.031,2.304,0.493,181.763,165.283,-327.576
-0.139,1.101,0.318,240.112,180.969,-377.197
-0.200,-0.049,0.344,259.338,208.679,-386.475
-0.291,-0.710,0.234,212.402,243.408,-355.957
-0.573,-0.768,-0.213,99.731,278.442,-317.261
-0.567,-1.260,-0.689,-28.931,312.500,-288.025
,,,,,
-0.846,-2.541,-1.344,-138.000,364.990,-199.524
-0.879,-3.121,-2.474,-171.143,351.929,-158.936
-0.614,-3.442,-2.986,-142.883,273.132,-120.850
-0.318,-3.312,-2.670,-126.526,177.185,-63.354
-0.007,-3.282,-2.795,-125.793,112.793,-4.517
0.044,-3.109,-2.648,-108.276,41.626,41.992
0.045,-2.972,-2.502,-70.129,-28.564,77.759
-0.097,-2.814,-2.471,-40.161,-83.923,115.845
-0.330,-2.563,-2.335,-17.151,-135.193,161.499
-0.232,-1.791,-1.950,5.554,-179.993,210.754
-0.339,-1.566,-1.590,39.124,-218.323,233.704
-0.411,-1.375,-1.264,70.007,-244.202,238.281
-0.455,-1.059,-0.944,97.290,-265.198,243.896
-0.456,-0.616,-0.521,111.328,-288.147,251.648
-0.366,-0.066,0.525,116.333,-310.181,261.536
-0.076,0.365,1.159,169.434,-304.687,259.399
0.153,0.709,1.314,151.245,-293.396,249.329
0.421,0.816,1.676,116.272,-299.011,247.803
0.934,1.890,3.595,105.713,-293.396,241.089
0.608,2.480,2.102,-169.922,-214.294,269.531
0.522,2.886,2.692,-268.311,-120.667,272.766
0.686,3.636,2.417,-223.450,-30.090,224.365
0.979,4.000,2.242,-168.030,43.884,156.616
1.092,4.000,1.963,-137.695,91.675,91.370
0.974,4.000,1.537,-140.076,120.911,28.625
0.820,4.000,1.098,-82.397,130.859,-55.603
0.647,3.436,0.796,19.043,131.104,-157.532
0.582,2.654,0.656,102.417,131.592,-235.657
0.295,2.011,0.457,140.747,136.658,-286.499
0.078,1.385,0.288,163.635,142.517,-322.876
-0.083,0.791,0.094,180.542,157.288,-346.985
-0.135,-0.035,-0.091,190.735,181.946,-354.797
-0.218,-0.585,-0.281,141.846,213.745,-333.862
-0.303,-0.950,-0.693,61.707,241.150,-300.903
-0.165,-1.373,-0.930,7.385,250.183,-270.935
0.036,-1.625,-0.923,-77.209,249.878,-224.731
-0.188,-1.738,-1.475,-155.640,256.653,-174.011
-0.008,-2.466,-1.852,-254.272,261.047,-129.395
-0.040,-3.224,-2.385,-278.564,223.022,-92.163
-0.105,-3.236,-2.621,-190.430,142.822,-62.256
0.098,-2.583,-2.693,-115.173,67.932,-24.292
0.174,-2.199,-2.418,-98.389,3.784,15.808
0.144,-2.427,-2.310,-49.072,-52.612,41.626
0.225,-2.555,-2.090,3.906,-98.572,67.566
0.222,-2.370,-1.741,32.593,-140.015,105.530
0.031,-2.078,-1.444,61.035,-177.734,139.954
-0.106,-1.759,-1.212,71.960,-203.735,170.471
-0.148,-1.493,-1.025,83.435,-220.764,192.322
-0.205,-1.145,-0.774,94.788,-240.540,208.313
-0.096,-0.793,-0.063,113.770,-265.686,219.360
0.156,-0.267,0.808,157.532,-269.775,225.830
0.328,0.254,0.816,144.531,-254.028,226.685
0.439,0.551,1.016,98.450,-257.324,233.887
0.651,0.770,1.395,97.229,-255.066,236.877
1.094,1.579,2.752,84.900,-233.215,228.821
0.737,2.080,2.071,-78.125,-179.016,239.929
0.782,2.811,1.937,-223.022,-95.642,242.432
1.061,3.299,1.930,-177.063,-39.307,195.557
1.138,3.583,2.138,-88.440,3.052,128.601
1.135,3.743,2.014,-78.735,47.241,71.045
0.956,3.736,1.544,-99.243,82.703,10.071
0.848,3.603,1.203,-58.655,99.731,-58.411
0.734,3.245,0.939,4.211,110.474,-130.859
0.696,2.618,0.649,55.847,119.324,-197.205
0.462,1.999,0.536,104.736,123.718,-246.948
0.271,1.453,0.364,138.000,130.249,-282.776
0.124,0.973,0.158,159.790,140.259,-306.946
0.050,0.425,-0.007,179.810,154.846,-319.153
0.021,-0.130,-0.105,178.162,172.607,-314.514
-0.010,-0.483,-0.256,127.136,191.162,-291.321
0.065,-0.740,-0.491,68.298,203.735,-264.526
0.202,-0.957,-0.635,42.236,202.759,-238.403
0.354,-0.966,-0.505,20.020,192.932,-204.285
0.429,-0.929,-0.591,-48.157,184.204,-165.283
0.439,-0.802,-0.872,-132.629,166.443,-128.174
0.253,-0.980,-0.962,-229.309,141.357,-91.431
0.166,-0.996,-1.447,-226.074,120.789,-74.036
0.174,-0.948,-1.556,-198.364,87.463,-70.190
0.340,-0.830,-1.400,-164.734,52.734,-65.735
0.470,-0.940,-1.100,-136.047,22.888,-62.988
0.444,-0.943,-0.922,-130.798,3.723,-57.556
0.460,-0.921,-1.188,-83.496,0.610,-48.035
0.353,-0.992,-1.183,-61.646,-17.334,-41.504
0.343,-1.009,-1.060,-33.997,-42.236,-38.757
0.378,-1.072,-0.844,-4.761,-64.087,-37.048
0.464,-1.083,-0.654,2.686,-77.881,-26.978
0.473,-1.085,-0.606,-3.967,-85.999,-16.174
0.460,-1.050,-0.646,-10.498,-91.064,-6.409
0.453,-1.006,-0.637,-16.846,-98.816,3.357
0.475,-0.954,-0.555,-18.921,-106.628,12.878
0.515,-0.874,-0.456,-18.005,-113.403,20.325
0.561,-0.789,-0.380,-19.958,-117.615,27.222
0.597,-0.720,-0.318,-23.437,-119.507,33.875
0.654,-0.641,-0.215,-20.203,-120.117,38.208
0.716,-0.567,-0.160,-9.094,-119.141,40.344
0.751,-0.505,-0.104,-2.075,-119.446,42.236
0.782,-0.458,-0.042,3.906,-120.728,43.701
0.788,-0.398,-0.005,7.751,-121.033,44.373
0.774,-0.365,-0.006,9.766,-121.094,43.701
0.761,-0.343,-0.013,13.794,-120.300,40.894
0.740,-0.315,0.001,25.818,-119.324,36.255
0.732,-0.310,0.013,40.649,-118.591,30.884
0.735,-0.310,0.021,54.199,-117.432,25.757
0.727,-0.414,-0.039,74.463,-117.249,20.020
0.803,-0.288,0.120,122.070,-123.169,6.775
0.866,-0.187,0.321,123.840,-125.244,3.723
0.879,-0.198,0.356,74.768,-121.643,14.954
0.823,-0.217,0.267,24.109,-120.728,27.588
0.804,-0.173,0.239,7.446,-119.019,32.898
0.815,-0.141,0.299,12.573,-117.065,30.640
0.779,-0.056,0.269,21.667,-113.647,25.940
0.843,-0.095,0.467,28.381,-108.826,19.287
0.859,-0.056,0.442,15.259,-102.173,17.395
0.839,-0.044,0.337,2.869,-97.473,14.221
0.837,-0.067,0.285,7.874,-94.360,7.812
0.845,-0.080,0.337,28.259,-93.384,-0.671
0.879,-0.086,0.430,48.950,-94.299,-8.728
0.894,-0.105,0.503,53.894,-95.154,-12.329
0.907,-0.140,0.555,44.312,-94.788,-11.047
,,,,,
-0.618,-0.736,1.273,12.939,33.630,28.381
-0.623,-0.745,1.313,17.883,41.321,31.982
-0.620,-0.748,1.344,23.804,49.133,35.950
-0.623,-0.787,1.365,29.907,57.556,40.466
-0.635,-0.838,1.373,35.828,66.162,45.471
-0.649,-0.885,1.386,42.358,74.402,50.232
-0.653,-0.913,1.400,51.086,80.994,54.016
-0.665,-0.963,1.422,55.298,87.036,58.777
-0.668,-0.983,1.402,49.927,93.628,65.369
-0.659,-0.994,1.388,41.809,100.098,72.449
-0.652,-1.003,1.379,34.485,106.506,80.627
-0.637,-0.989,1.354,26.917,113.159,89.722
-0.622,-0.965,1.333,20.691,119.446,98.083
-0.619,-0.992,1.327,17.761,123.230,105.225
-0.608,-0.984,1.336,14.221,126.099,112.244
-0.616,-1.039,1.324,8.362,127.563,117.920
-0.633,-1.030,1.299,1.099,128.845,123.352
-0.647,-1.049,1.297,-2.808,129.456,128.418
-0.649,-1.041,1.269,-7.874,132.080,134.216
-0.631,-0.981,1.242,-13.428,136.841,139.648
-0.599,-0.898,1.231,-15.686,141.724,143.433
-0.597,-0.962,1.241,-16.846,146.179,144.897
-0.601,-0.991,1.250,-18.921,151.001,148.132
-0.619,-0.986,1.281,-18.372,155.823,151.917
-0.635,-0.948,1.330,-14.343,159.546,155.762
-0.638,-0.916,1.359,-11.414,163.391,159.241
-0.595,-0.867,1.391,-10.498,167.908,163.208
-0.605,-0.737,1.432,-14.709,173.279,167.297
-0.557,-0.625,1.424,-15.442,179.016,168.823
-0.528,-0.541,1.502,-15.381,182.434,166.565
-0.527,-0.540,1.531,-16.052,186.951,163.269
-0.556,-0.551,1.606,-28.198,198.486,158.997
-0.651,-0.448,1.545,-42.480,221.375,155.457
-0.633,-0.381,1.346,-41.626,245.850,148.193
-0.645,-0.257,1.303,-52.063,261.780,139.832
-0.620,-0.158,1.217,-40.771,275.452,127.075
-0.581,-0.097,1.157,-30.762,285.950,114.197
-0.549,-0.078,1.078,-18.127,294.739,102.112
-0.528,-0.038,0.989,-2.625,301.880,90.820
-0.571,-0.002,0.877,9.216,308.411,80.994
-0.489,-0.019,0.748,17.761,314.941,69.641
-0.416,-0.019,0.593,36.804,318.176,57.800
-0.371,-0.078,0.579,51.147,313.782,49.316
-0.353,-0.251,0.498,65.796,310.364,40.527
-0.311,-0.317,0.382,69.031,312.561,35.583
-0.283,-0.332,0.200,62.805,316.589,32.776
-0.247,-0.383,-0.028,60.974,319.580,28.137
-0.198,-0.359,-0.210,42.603,318.665,25.513
-0.207,-0.503,-0.356,11.780,319.214,24.475
-0.076,-0.763,-0.457,-22.339,318.298,20.264
0.080,-1.127,-0.731,-45.715,312.561,19.043
0.191,-1.571,-0.978,-46.143,296.631,29.785
-0.090,-1.552,-1.137,-34.790,274.231,52.490
0.043,-1.618,-1.335,7.935,243.164,66.711
0.107,-1.547,-1.184,89.478,201.172,70.557
-0.021,-1.690,-1.530,128.906,166.748,78.125
0.009,-2.200,-1.219,92.224,114.624,95.459
0.145,-2.336,-1.235,87.402,57.068,117.615
0.023,-2.407,-1.081,68.665,2.625,158.508
-0.041,-2.129,-0.808,27.344,-36.377,211.731
-0.159,-1.871,-0.669,1.221,-53.406,256.653
-0.286,-1.579,-0.790,-36.499,-63.293,295.471
-0.334,-1.074,-0.769,-42.969,-77.087,326.050
-0.363,-0.569,-0.543,-25.940,-101.379,343.262
-0.460,-0.096,-0.286,1.526,-125.977,348.694
-0.393,0.493,0.156,26.428,-150.208,349.548
-0.249,0.820,0.686,58.960,-163.635,347.107
-0.050,1.415,1.275,81.238,-160.034,345.215
-0.027,1.763,1.449,37.720,-143.127,335.754
0.114,2.232,1.775,-33.936,-129.517,317.932
0.283,2.937,1.788,-53.833,-84.045,294.556
0.123,3.594,1.811,-120.728,-8.362,243.225
0.205,4.000,1.581,-150.208,53.467,170.837
0.465,4.000,1.606,-107.788,81.543,91.919
0.463,4.000,1.219,-50.171,103.638,24.963
0.441,4.000,1.310,-52.673,128.113,-30.945
0.331,3.467,1.190,-58.167,146.851,-92.407
0.239,2.819,0.939,-16.846,147.095,-155.884
0.057,2.234,0.640,26.367,145.508,-211.975
-0.107,1.583,0.537,45.959,155.334,-253.784
-0.239,1.078,0.483,51.453,167.053,-284.546
-0.396,0.504,0.245,28.137,181.824,-303.467
-0.398,-0.085,-0.206,-19.226,203.125,-313.782
-0.259,-0.718,-0.349,-68.115,212.463,-309.570
-0.211,-1.706,-0.710,-103.760,213.501,-289.551
-0.504,-2.285,-0.771,-58.350,212.097,-257.141
-0.724,-2.113,-1.168,3.296,235.535,-225.281
-0.324,-2.682,-2.126,-18.921,249.756,-197.083
-0.123,-3.340,-2.699,-76.050,226.196,-142.517
-0.028,-3.404,-2.459,-138.550,136.963,-68.542
-0.082,-3.509,-2.162,-104.309,51.331,-21.606
-0.097,-3.584,-2.074,-17.822,1.770,20.203
0.023,-3.358,-1.792,-53.162,-57.068,77.332
-0.119,-3.240,-1.771,-36.804,-108.093,132.263
-0.084,-2.770,-1.649,-23.926,-150.757,182.434
-0.011,-2.181,-1.286,-18.005,-189.392,224.915
-0.120,-1.703,-1.003,9.277,-225.159,253.174
-0.309,-1.189,-0.786,46.997,-256.958,271.301
-0.391,-0.648,-0.486,66.650,-288.086,286.804
-0.183,0.070,0.006,90.027,-309.204,291.565
0.234,0.755,1.340,142.517,-322.632,284.302
0.354,1.318,1.220,154.053,-301.392,273.987
0.420,1.745,1.427,100.830,-300.537,272.644
0.413,2.042,2.098,81.299,-284.851,259.216
0.483,2.693,3.063,-3.662,-232.849,243.958
0.582,2.962,3.645,-106.506,-126.587,233.521
0.414,4.000,3.109,-214.661,-3.357,213.989
0.475,4.000,2.645,-178.284,92.712,135.864
1.001,4.000,2.265,-107.971,159.363,44.250
1.103,4.000,2.265,-114.197,207.336,-21.545
0.962,3.987,1.840,-116.882,222.229,-84.167
0.799,3.474,1.294,-78.918,219.482,-155.701
0.396,2.946,0.875,-16.174,211.609,-227.295
0.173,2.159,0.758,25.818,202.576,-283.875
-0.022,1.541,0.534,16.296,190.735,-319.092
-0.131,0.863,0.211,18.555,181.580,-351.746
-0.290,0.289,0.148,49.377,185.425,-368.835
-0.475,-0.676,-0.358,53.589,198.669,-374.146
-0.521,-1.275,-0.698,2.441,221.191,-349.182
,,,,,
-0.215,-2.802,-0.991,-106.995,252.014,-268.921
-0.576,-3.371,-2.201,-155.945,271.851,-214.233
-0.584,-3.252,-2.669,-70.313,261.047,-158.447
-0.602,-2.899,-2.737,-67.017,210.144,-100.403
-0.462,-3.375,-2.818,-70.190,166.016,-57.556
0.028,-3.840,-2.688,-95.886,106.995,3.052
0.316,-3.519,-2.193,-117.065,19.165,80.139
0.157,-3.100,-1.864,-78.247,-79.407,137.451
-0.082,-2.729,-1.882,-28.015,-138.184,177.795
-0.219,-2.267,-1.537,8.911,-181.580,214.844
-0.350,-1.679,-1.116,42.725,-214.905,247.375
-0.426,-1.143,-0.854,78.918,-233.215,264.221
-0.378,-0.659,-0.775,114.563,-246.216,261.902
-0.229,-0.234,-0.463,140.076,-265.869,257.263
-0.117,0.137,0.620,162.598,-290.649,255.981
0.024,0.427,0.678,162.354,-281.006,255.493
0.251,0.857,1.016,115.845,-274.475,263.184
0.452,1.271,1.461,81.482,-253.113,267.273
0.511,1.789,1.974,23.437,-211.975,265.076
0.670,2.135,2.167,-23.987,-152.710,252.380
0.693,3.419,2.375,-7.385,-88.806,217.651
0.823,3.860,2.375,-97.900,-15.198,185.425
0.972,4.000,2.032,-207.581,47.119,156.616
1.002,4.000,1.687,-173.157,93.445,97.412
1.032,4.000,1.492,-131.470,132.080,21.362
0.945,3.999,1.167,-92.102,154.846,-60.791
0.791,3.536,0.927,-35.095,155.579,-143.372
0.591,2.926,0.670,0.061,139.954,-212.463
0.580,2.288,0.582,32.166,121.948,-270.325
0.406,1.770,0.469,59.570,106.384,-312.683
0.031,1.252,0.279,72.937,98.877,-341.614
-0.238,0.774,0.094,78.735,106.323,-357.483
-0.312,0.214,-0.155,57.007,124.390,-361.633
-0.324,-0.456,-0.381,51.270,138.000,-361.023
-0.418,-1.104,-0.531,35.400,152.161,-353.149
-0.179,-1.660,-0.622,-15.503,174.500,-330.627
0.032,-2.538,-0.744,-103.455,199.524,-288.208
-0.316,-2.980,-1.295,-184.509,220.398,-227.234
-0.450,-3.192,-1.932,-171.631,221.619,-173.584
-0.270,-2.697,-2.257,-75.562,184.387,-128.540
-0.149,-2.687,-2.176,-72.571,133.118,-78.125
-0.021,-3.116,-2.102,-73.730,82.825,-32.349
0.421,-3.171,-1.841,-67.688,22.400,13.672
0.349,-2.967,-1.725,-39.063,-45.837,59.692
0.134,-2.709,-1.712,-2.747,-93.201,97.351
0.025,-2.315,-1.630,26.855,-126.587,132.690
-0.048,-1.909,-1.469,52.368,-163.391,165.466
-0.003,-1.500,-1.012,76.233,-198.486,191.162
0.087,-1.124,-0.446,110.413,-217.102,207.581
0.020,-0.696,-0.478,128.113,-220.947,220.947
-0.017,-0.203,-0.046,129.700,-236.755,234.375
0.117,0.240,0.441,138.611,-246.704,239.441
0.368,0.817,0.703,121.948,-245.178,242.981
0.535,0.985,1.345,105.896,-242.432,241.150
0.633,1.442,1.238,75.684,-215.027,236.389
0.985,1.793,2.238,11.047,-167.786,229.980
0.672,2.701,1.827,-130.127,-97.717,239.197
0.774,3.157,1.514,-239.380,-22.766,224.548
0.986,3.452,1.230,-190.369,28.748,158.203
1.128,3.736,1.033,-145.203,68.787,90.088
1.134,3.917,0.957,-98.145,93.628,25.818
1.048,3.599,0.736,-35.156,94.604,-47.729
0.977,2.934,0.554,18.799,82.703,-120.544
0.933,2.242,0.449,67.322,63.721,-181.396
0.838,1.760,0.348,91.858,46.448,-229.980
0.516,1.268,0.205,114.441,33.020,-268.311
0.300,0.877,0.091,111.511,35.950,-287.170
0.318,0.474,0.063,95.459,51.636,-293.945
0.430,0.017,0.042,73.975,65.247,-292.358
0.433,-0.320,-0.006,75.928,64.270,-288.513
0.246,-0.519,-0.079,82.153,62.195,-280.762
0.185,-0.756,-0.150,49.561,71.533,-263.428
0.287,-0.830,-0.174,5.188,85.449,-234.436
0.400,-0.881,-0.160,-42.175,93.750,-195.984
0.420,-0.983,-0.411,-93.567,97.168,-156.677
0.408,-0.890,-0.445,-141.968,93.933,-124.023
0.379,-0.962,-0.673,-204.651,94.604,-89.050
0.265,-0.965,-0.779,-184.448,80.872,-74.524
0.367,-0.922,-0.688,-138.916,62.256,-75.378
0.510,-0.867,-0.692,-119.141,49.744,-72.571
0.579,-0.884,-0.683,-116.760,33.508,-64.514
0.564,-0.937,-0.770,-105.713,13.733,-60.486
0.561,-0.875,-0.786,-76.416,-5.432,-59.143
0.544,-0.838,-0.731,-42.908,-23.254,-59.021
0.527,-0.887,-0.700,-18.921,-38.391,-58.960
0.520,-0.923,-0.644,-1.160,-52.368,-55.664
0.507,-0.940,-0.598,10.681,-65.063,-50.476
0.512,-0.989,-0.542,13.611,-74.219,-43.091
0.540,-1.035,-0.472,9.338,-78.674,-33.203
0.563,-1.031,-0.406,7.690,-83.008,-23.376
0.606,-0.992,-0.366,3.967,-87.646,-14.221
0.659,-0.931,-0.357,-3.845,-92.102,-5.554
0.680,-0.845,-0.327,-10.132,-98.877,2.869
0.674,-0.736,-0.316,-15.259,-106.445,9.521
0.683,-0.681,-0.293,-14.587,-113.770,11.963
0.730,-0.608,-0.226,-8.423,-119.202,12.268
0.761,-0.527,-0.167,1.892,-123.352,11.292
0.790,-0.471,-0.086,11.475,-127.075,9.888
0.858,-0.505,0.029,17.822,-128.784,9.766
0.845,-0.470,0.096,19.104,-128.174,11.902
0.833,-0.516,0.098,15.930,-125.977,13.245
0.852,-0.629,0.215,18.188,-124.207,13.062
0.875,-0.587,0.307,22.034,-119.873,14.648
0.893,-0.530,0.328,18.005,-113.586,17.334
0.885,-0.465,0.291,9.399,-107.056,21.301
0.900,-0.414,0.306,12.268,-102.600,23.193
0.938,-0.355,0.349,22.949,-100.098,23.743
0.948,-0.309,0.382,29.053,-98.877,24.353
0.941,-0.287,0.380,27.344,-97.473,24.780
0.946,-0.273,0.406,25.940,-95.459,24.536
0.959,-0.242,0.410,24.963,-92.834,23.071
0.973,-0.281,0.435,22.827,-88.867,20.813
0.960,-0.161,0.413,19.043,-84.229,20.203
0.961,-0.289,0.434,14.587,-80.383,17.273
0.974,-0.351,0.469,10.986,-75.317,16.418
0.949,-0.271,0.411,3.662,-71.106,18.127
0.936,-0.203,0.397,5.798,-70.190,16.296
0.929,-0.174,0.408,11.902,-69.519,12.024
0.925,-0.156,0.420,18.433,-69.763,7.874
,,,,,
-0.180,-0.979,1.452,18.555,106.812,96.436
-0.166,-1.019,1.476,17.212,108.521,101.563
-0.204,-1.010,1.511,12.085,112.427,108.643
-0.167,-1.062,1.554,6.409,117.615,116.638
-0.220,-1.090,1.586,1.099,123.413,123.779
-0.239,-1.100,1.559,-0.977,130.005,129.822
-0.227,-1.112,1.544,-7.141,140.564,135.742
-0.232,-1.093,1.524,-15.503,151.794,139.771
-0.249,-1.066,1.516,-18.982,159.485,141.968
-0.281,-1.036,1.486,-22.827,164.062,143.555
-0.300,-1.010,1.469,-23.071,167.053,144.104
-0.320,-0.975,1.509,-22.034,168.762,144.531
-0.340,-0.960,1.488,-28.015,169.983,146.301
-0.358,-0.952,1.491,-35.461,172.424,147.766
-0.409,-0.943,1.492,-36.743,174.927,146.667
-0.474,-0.937,1.518,-34.729,177.246,144.409
-0.518,-0.914,1.529,-31.616,180.847,142.883
-0.559,-0.887,1.513,-29.785,189.026,142.334
-0.610,-0.856,1.481,-29.175,202.271,142.578
-0.637,-0.840,1.464,-27.954,217.896,143.372
-0.664,-0.799,1.427,-25.208,232.544,144.287
-0.660,-0.715,1.395,-21.179,243.835,144.470
-0.629,-0.612,1.356,-16.235,251.221,143.066
-0.628,-0.525,1.271,-16.418,256.897,140.869
-0.591,-0.439,1.183,-11.414,260.986,136.230
-0.601,-0.317,1.172,2.258,262.756,130.188
-0.583,-0.258,1.155,4.883,263.123,124.878
-0.597,-0.212,1.127,-2.563,265.015,120.239
-0.611,-0.104,1.128,-7.629,269.287,113.281
-0.604,-0.012,1.055,-12.756,275.330,104.004
-0.629,0.055,0.972,-19.836,284.790,94.604
-0.634,0.082,0.814,-17.517,298.035,84.167
-0.682,0.117,0.623,-12.634,310.913,73.059
-0.664,0.138,0.433,-9.705,318.420,62.073
-0.694,0.166,0.333,-1.709,321.655,49.255
-0.692,0.121,0.162,11.047,325.623,35.095
-0.684,0.056,-0.009,18.127,328.552,22.949
-0.720,0.046,-0.245,16.663,329.468,15.381
-0.544,-0.245,-0.411,-13.672,323.975,15.381
-0.596,-0.473,-0.486,-68.665,315.674,25.391
-0.642,-0.684,-0.754,-127.808,317.017,35.095
-0.593,-0.964,-1.497,-141.296,324.341,34.912
-0.602,-1.083,-1.859,-72.266,319.153,21.423
-0.667,-0.891,-2.403,-12.268,293.823,8.179
-0.381,-1.375,-2.712,14.099,245.056,-4.089
-0.283,-1.870,-2.348,35.461,178.284,-4.883
0.129,-2.319,-2.156,27.466,109.741,28.870
0.044,-2.190,-1.864,12.268,32.532,81.116
-0.052,-1.992,-1.780,-5.310,-25.513,129.700
-0.088,-1.859,-1.910,-16.174,-54.626,166.138
-0.237,-1.753,-1.978,-4.700,-86.731,201.233
-0.380,-1.433,-1.905,12.634,-131.592,239.380
-0.385,-0.847,-1.493,46.204,-182.434,262.268
-0.444,-0.797,-0.955,93.018,-221.619,263.184
-0.503,-0.429,-0.402,114.685,-252.319,271.484
-0.531,0.112,0.112,123.352,-281.433,285.278
-0.361,0.623,1.188,151.489,-298.157,287.720
0.100,1.055,1.864,218.445,-292.908,275.940
0.578,1.474,2.978,182.129,-302.917,270.630
0.566,2.371,3.635,13.245,-274.963,285.522
0.013,3.038,2.695,-311.584,-165.100,311.035
0.272,3.413,2.494,-350.037,-43.701,268.433
0.773,4.000,2.289,-256.836,70.313,199.890
1.068,4.000,2.183,-158.691,117.676,108.215
1.188,4.000,2.121,-112.183,142.395,4.883
0.835,4.000,1.810,-42.603,143.799,-106.934
0.361,3.957,1.387,31.555,143.555,-207.458
0.128,3.164,1.182,89.844,151.489,-277.466
-0.172,2.218,0.901,121.338,161.133,-323.853
-0.434,1.542,0.400,132.935,178.894,-356.262
-0.397,0.595,0.294,126.038,207.581,-375.366
-0.279,-0.579,-0.362,42.786,239.563,-380.615
-0.074,-1.353,-0.071,-102.295,270.752,-371.399
-0.385,-3.141,-0.889,-165.588,285.217,-350.403
-0.552,-3.268,-1.438,-17.761,283.752,-308.105
-0.367,-3.080,-1.410,-26.917,271.179,-234.253
-0.523,-3.569,-2.034,-208.801,246.643,-131.409
-0.750,-3.774,-3.181,-203.674,214.111,-48.157
-0.524,-3.447,-3.180,-202.820,125.977,17.517
-0.127,-3.385,-2.695,-98.145,45.166,42.786
-0.150,-3.624,-2.049,-45.715,-39.612,60.242
-0.119,-3.779,-1.987,1.160,-92.834,87.708
-0.203,-3.682,-1.938,16.479,-138.062,138.794
-0.334,-3.036,-1.650,39.673,-182.190,195.251
-0.560,-2.386,-1.206,73.486,-223.877,238.342
-0.669,-1.779,-0.732,104.980,-253.601,263.855
-0.650,-0.898,-0.222,114.563,-275.513,290.283
-0.548,0.288,0.563,117.737,-294.617,312.988
-0.176,0.935,1.340,124.268,-293.335,319.580
0.003,1.388,1.948,84.534,-273.560,321.899
0.332,1.738,2.611,33.752,-245.178,328.735
0.226,2.855,2.827,-49.133,-184.021,340.149
0.568,3.603,2.946,-124.268,-100.586,324.585
0.496,4.000,2.556,-128.235,-10.254,266.724
0.657,4.000,2.195,-157.593,63.049,197.876
1.146,4.000,2.020,-182.861,93.933,127.563
1.206,4.000,1.034,-24.780,91.858,43.091
0.875,4.000,1.441,-46.021,123.352,-16.602
0.482,4.000,0.922,-157.654,133.423,-110.596
0.433,3.602,0.952,-52.673,112.671,-234.070
0.355,2.883,0.746,18.066,96.680,-321.777
0.071,2.120,0.542,54.443,85.205,-379.333
-0.286,1.284,0.320,84.900,89.294,-419.189
-0.594,0.412,0.105,92.590,103.149,-443.115
-0.745,-0.583,-0.112,93.140,132.568,-445.679
-0.796,-1.496,-0.245,70.374,164.795,-422.668
-0.909,-2.319,-0.676,45.105,203.552,-384.521
-0.989,-2.792,-1.426,-56.213,245.789,-326.965
-1.110,-4.000,-1.999,-191.589,265.686,-254.456
-0.950,-4.000,-2.606,-192.749,247.742,-184.265
